"Time (s)","Linear Acceleration x (m/s^2)","Linear Acceleration y (m/s^2)","Linear Acceleration z (m/s^2)"
5.760798100E-2,-8.879604936E-2,3.327844292E-2,-2.224855423E-1
6.773981700E-2,-1.323128343E-1,6.281667203E-2,-1.059026718E-1
7.787165300E-2,-1.253221780E-1,3.649199381E-2,-5.029106140E-2
8.800348900E-2,-9.442724288E-2,3.800158948E-2,-2.504253387E-2
9.816584200E-2,-5.665437877E-2,4.469528794E-2,-3.194808960E-4
1.083281960E-1,-2.933251858E-2,5.805366114E-2,1.899147034E-2
1.184905490E-1,-3.711029887E-3,4.598702118E-2,3.699398041E-2
1.286223850E-1,-1.190438867E-3,1.901889406E-2,3.537368774E-2
1.387847390E-1,-1.647634804E-2,3.355232999E-3,-1.061534882E-2
1.489470920E-1,-3.450210392E-2,-1.130496059E-2,-5.709457397E-2
1.591094460E-1,-4.388949275E-2,-1.557458751E-2,-9.571647644E-2
1.692717990E-1,-5.024302006E-2,7.477084175E-3,-8.895683289E-2
1.794646700E-1,-4.979066551E-2,1.806491986E-2,-8.106040955E-2
1.896270240E-1,-2.481506765E-2,3.055812605E-2,-6.708240509E-2
1.997893770E-1,-2.204115689E-2,3.571697325E-2,-6.079578400E-2
2.099517310E-1,-2.198657393E-2,2.981309220E-2,-5.052947998E-2
2.201140840E-1,-1.961089671E-2,3.113813698E-2,-2.726459503E-2
2.302764380E-1,-2.201603353E-2,2.101651952E-2,-7.378578186E-3
2.404387910E-1,-3.560216725E-2,1.827815920E-2,2.320289612E-3
2.506011450E-1,-2.462804317E-2,2.261827514E-2,2.547454834E-2
2.607634980E-1,-2.734574676E-2,1.055615395E-2,3.606796265E-2
2.709258520E-1,-2.266091108E-2,-3.175999969E-3,4.396247864E-2
2.810882050E-1,-2.044807374E-2,-1.168689132E-2,2.592182159E-2
2.912505590E-1,-2.785073221E-2,-1.744934544E-2,-9.938240051E-3
3.014129120E-1,-2.563528717E-2,-1.353242621E-2,-4.220485687E-2
3.115752660E-1,-2.863110602E-2,4.643108696E-3,-4.057979584E-2
3.217376190E-1,-2.310794592E-2,2.718338370E-2,4.539489746E-4
3.318999730E-1,-3.996874392E-2,5.834451318E-2,4.932498932E-2
3.420928440E-1,-2.240830660E-2,8.389966190E-2,-1.560020447E-2
3.522551980E-1,4.593805969E-2,6.502112746E-2,-1.272058487E-1
3.624175510E-1,8.008791506E-2,3.218908608E-2,-5.280685425E-2
3.725799050E-1,5.091169477E-2,1.070021465E-2,8.907508850E-2
3.827422580E-1,-1.665356755E-2,-3.417514265E-2,1.309194565E-1
3.929046120E-1,-5.604904890E-2,-3.893875331E-2,5.438518524E-2
4.030669650E-1,-4.505980015E-2,-3.463670239E-2,-1.113672256E-1
4.132293190E-1,-1.610383391E-2,-3.404073417E-3,-2.280111313E-1
4.233916720E-1,-2.242688835E-2,3.653705493E-2,-1.609296799E-1
4.335540260E-1,-4.034411907E-2,7.062522322E-2,-1.929283142E-3
4.437163790E-1,-5.378144979E-2,7.589477301E-2,1.626024246E-1
4.538787330E-1,-2.692645788E-2,7.703565806E-2,2.692251205E-1
4.640410860E-1,-9.734302759E-3,4.905398190E-2,2.486734390E-1
4.742034400E-1,1.069530845E-3,1.165134832E-2,1.182851791E-1
4.843657930E-1,-6.401091814E-4,-1.492043957E-2,-3.726482391E-2
4.945281470E-1,-9.731605649E-3,-4.793671146E-2,-1.305303574E-1
5.047210180E-1,-2.055424452E-2,-6.018692255E-2,-1.182851791E-1
5.148833710E-1,-4.942305386E-2,-5.413132533E-2,-4.036998749E-2
5.250457250E-1,-7.053679228E-2,-3.051458299E-2,3.349876404E-2
5.352080780E-1,-6.305608153E-2,1.412673667E-2,6.343555450E-2
5.453704320E-1,-3.219616413E-2,6.250293553E-2,6.457042694E-2
5.555327850E-1,4.967421293E-3,9.084811807E-2,5.386447906E-2
5.656951390E-1,3.861472011E-2,1.045816988E-1,2.930641174E-2
5.758574920E-1,4.774598777E-2,7.840837538E-2,1.933574677E-2
5.860198460E-1,4.731217027E-2,4.603757709E-2,3.319740295E-2
5.961821990E-1,3.763632476E-2,-4.360215738E-3,3.975963593E-2
6.063445530E-1,2.586291730E-2,-1.864054613E-2,5.091381073E-2
6.165069070E-1,3.325028718E-2,-1.636882685E-2,5.000972748E-2
6.266692600E-1,1.441590488E-2,-2.171949111E-2,5.636310577E-2
6.368316140E-1,-2.053861320E-2,-2.549438737E-2,1.595325470E-1
6.470244850E-1,-3.295315802E-2,2.203151584E-3,2.276802063E-1
6.571868380E-1,-1.335722208E-2,3.477153182E-2,8.430957794E-2
6.673491920E-1,1.573845744E-3,5.475472286E-2,-8.007049561E-2
6.775115450E-1,-3.617869318E-2,6.679502875E-2,-1.329498291E-1
6.876738990E-1,-7.667525113E-2,5.544687808E-2,-1.141071320E-1
6.978362520E-1,-7.450780272E-2,4.238403589E-2,-3.411388397E-2
7.079986060E-1,-2.983082831E-2,4.318609461E-2,4.451179504E-2
7.181609590E-1,1.427021623E-2,5.175464973E-2,1.099157333E-1
7.283233130E-1,3.136892617E-2,5.093143135E-2,1.033296585E-1
7.384856660E-1,3.325453401E-2,5.716116354E-2,8.508110046E-2
7.486480200E-1,2.511525154E-2,5.148487538E-2,5.057907104E-2
7.588103730E-1,-4.372417927E-3,2.499958687E-2,2.607440948E-2
7.689727270E-1,-2.418172359E-2,-3.065193072E-3,-5.108833313E-3
7.791350800E-1,-4.364536703E-2,-1.364675537E-2,-1.208686829E-2
7.893279510E-1,-4.877848923E-2,-2.153016627E-2,1.651859283E-2
7.994903050E-1,-3.473782539E-2,8.252635598E-3,4.699611664E-2
8.096526580E-1,-2.763712406E-2,2.993277460E-2,7.224464417E-2
8.198150120E-1,-1.832965016E-2,4.337567836E-2,8.050251007E-2
8.299773660E-1,-1.141688228E-2,6.086170673E-2,6.259155273E-2
8.401397190E-1,-1.177029312E-2,5.438309908E-2,2.614498138E-2
8.503020730E-1,-9.914994240E-3,5.814870447E-2,2.108287811E-2
8.604644260E-1,-1.982416213E-2,6.313943863E-2,3.970623016E-2
8.706267800E-1,-3.158673644E-2,5.321536958E-2,2.965927124E-2
8.807891330E-1,-3.538422287E-2,5.043024570E-2,-3.782272339E-3
8.909514870E-1,-2.910999954E-2,3.133157641E-2,-3.898048401E-2
9.011138400E-1,-2.279368043E-2,1.293703914E-2,-7.822418213E-2
9.113067110E-1,-2.150011063E-2,-4.706680775E-3,-8.127784729E-2
9.214690650E-1,-2.994401753E-2,-8.133232594E-3,-6.524848938E-2
9.316314180E-1,-2.434958518E-2,4.187166691E-3,-4.471492767E-2
9.417937720E-1,3.173947334E-6,9.605422616E-3,-5.554199219E-3
9.519561250E-1,1.415760815E-2,1.217192411E-2,5.192661285E-2
9.621184790E-1,2.750043571E-2,2.477836609E-2,1.273622513E-1
9.722808320E-1,2.087152004E-2,1.779547334E-2,1.966781616E-1
9.824431860E-1,-2.830117941E-3,2.841168642E-2,2.150650024E-1
9.926055390E-1,-1.664891839E-2,3.034377098E-2,1.739320755E-1
1.002767893E0,-2.012416720E-2,2.206367254E-2,1.169281006E-1
1.012930246E0,-6.680637598E-3,9.928315878E-3,8.928012848E-2
1.023092600E0,-4.351353645E-2,2.102825046E-2,3.585147858E-2
1.033254953E0,-2.616328001E-2,5.113440752E-2,-7.106113434E-2
1.043417307E0,2.850502729E-2,4.731577635E-2,-1.451587677E-1
1.053579660E0,8.983552456E-2,2.720645070E-2,-1.493511200E-1
1.063742014E0,7.499539852E-2,-4.741817713E-3,-1.375675201E-2
1.073934885E0,-2.411261201E-2,-4.510584474E-2,1.381883621E-1
1.084097239E0,-6.857256591E-2,-4.107329249E-2,3.450012207E-2
1.094259592E0,-3.564846516E-2,-1.370313764E-2,-1.403875351E-1
1.104421946E0,-9.628087282E-4,1.671308279E-2,-9.220886230E-2
1.114584299E0,-2.803489566E-2,5.441850424E-2,1.559238434E-1
1.124746653E0,-7.653367519E-2,6.602257490E-2,3.191375732E-1
1.134909006E0,-8.067679405E-2,6.677743793E-2,2.170515060E-1
1.145071360E0,-7.434402406E-2,7.227978110E-2,1.985359192E-2
1.155233713E0,-4.779295623E-2,8.026403189E-2,-1.148433685E-1
1.165396067E0,-1.429258287E-2,4.291683435E-2,-1.336727142E-1
1.175558420E0,-3.159910440E-3,-3.661036491E-3,-5.045890808E-2
1.185720774E0,1.034797728E-2,-4.624253511E-2,3.365421295E-2
1.195883127E0,-7.395744324E-4,-8.164173365E-2,8.801651001E-2
1.206045481E0,-2.403163910E-2,-7.517004013E-2,9.179878235E-2
1.216238352E0,-3.402352333E-2,-1.778191328E-2,6.949615479E-2
1.226400705E0,-4.353630543E-2,6.015545130E-2,4.289531708E-2
1.236563059E0,-4.850548506E-2,1.599954963E-1,-1.397609711E-2
1.246725412E0,-1.819932461E-2,2.333758473E-1,-9.322261810E-2
1.256887766E0,1.585382223E-2,2.373454571E-1,-4.300594330E-2
1.267050119E0,4.238705337E-2,1.939945221E-1,8.697414398E-2
1.277212473E0,4.020565748E-2,8.822941780E-2,1.843032837E-1
1.287374826E0,2.118568122E-2,-1.255804300E-2,2.257394791E-1
1.297537180E0,-3.266587853E-3,-1.055666208E-1,1.859436035E-1
1.307699533E0,-9.395867586E-3,-1.467046142E-1,8.551311493E-2
1.317861887E0,-1.631709933E-2,-1.579610705E-1,7.414150238E-2
1.328024241E0,-2.133315802E-2,-1.524170041E-1,4.376983643E-2
1.338186594E0,1.304447651E-4,-1.118508577E-1,-3.342628479E-2
1.348379465E0,3.590482473E-2,-6.905823946E-2,-8.574676514E-2
1.358541819E0,3.993232548E-2,1.236093044E-2,-8.522701263E-2
1.368704172E0,5.230769515E-3,8.229953051E-2,-4.454612732E-2
1.378866526E0,-1.581904292E-2,1.172933578E-1,4.501438141E-2
1.389028879E0,-2.711255848E-2,1.146457195E-1,1.211080551E-1
1.399191233E0,-9.078048170E-3,1.150055528E-1,1.390790939E-1
1.409353586E0,1.154631376E-2,9.241312742E-2,1.329088211E-1
1.419515940E0,3.635184467E-2,5.511075258E-2,1.078672409E-1
1.429678293E0,2.679262310E-2,8.559644222E-3,1.115970612E-1
1.439840647E0,1.851394773E-4,-4.724866152E-2,1.577539444E-1
1.450003000E0,-2.116655558E-2,-8.176648617E-2,1.296472549E-1
1.460195871E0,-3.424263746E-2,-9.777283669E-2,4.053020477E-2
1.470358225E0,-3.879881650E-2,-9.540891647E-2,-2.123832703E-3
1.480520578E0,-4.497773945E-2,-9.900534153E-2,1.011753082E-2
1.490682932E0,-6.548109651E-2,-6.234592199E-2,3.136539459E-2
1.500845285E0,-6.738398224E-2,-4.124593735E-2,3.306674957E-2
1.511007639E0,-7.227910310E-2,-1.923179626E-2,3.199863434E-2
1.521169992E0,-5.800731480E-2,6.364643574E-3,4.605293274E-3
1.531332346E0,-5.438822508E-2,7.951319218E-3,-1.772785187E-2
1.541494699E0,-3.882993013E-2,1.755911112E-2,4.196166992E-4
1.551657053E0,-1.622302085E-2,2.138936520E-2,2.761459351E-2
1.561819407E0,4.872009158E-4,4.150974751E-2,6.376457214E-2
1.571981760E0,2.389665693E-2,5.488729477E-2,2.419471741E-3
1.582144114E0,2.401349694E-2,7.255768776E-2,-6.466388702E-2
1.592336985E0,-1.213364303E-3,7.864683867E-2,-8.303070068E-2
1.602499338E0,-3.425704688E-2,5.648124218E-2,-3.709030151E-2
1.612661692E0,-2.938765287E-2,1.430922747E-2,-1.549530029E-2
1.622824045E0,-1.279968768E-2,3.557085991E-3,-2.513122559E-2
1.632986399E0,8.821770549E-3,-1.720845699E-3,-9.591484070E-2
1.643148752E0,9.402796626E-3,6.603419781E-3,-1.392564774E-1
1.653311106E0,-6.744384766E-3,2.365899086E-2,-8.000087738E-2
1.663473459E0,-1.636975259E-2,2.655839920E-2,2.542495728E-2
1.673635813E0,-6.492882967E-4,3.309178352E-2,6.270217896E-2
1.683798166E0,1.222823560E-2,3.326970339E-2,6.142139435E-2
1.693960520E0,5.926065147E-3,2.017378807E-2,8.152294159E-2
1.704122873E0,-3.816848248E-2,3.888589144E-2,4.167079926E-2
1.714285227E0,-2.050902694E-2,8.777761459E-2,-1.532144547E-1
1.724447580E0,2.458099276E-2,7.655674219E-2,-6.547641754E-2
1.734609934E0,6.930078566E-2,4.344987869E-2,3.442287445E-2
1.744772287E0,8.101714402E-2,1.737672091E-2,-9.152698517E-2
1.754934641E0,1.329905540E-2,-3.497552872E-2,4.240798950E-2
1.765127512E0,-5.204160511E-2,-3.829652071E-2,-6.282806396E-3
1.775289866E0,-5.821946263E-2,8.298397064E-3,-2.333507538E-1
1.785452219E0,-5.371236056E-2,6.441599131E-2,-1.770524979E-1
1.795614573E0,-3.955466300E-2,7.940065861E-2,1.785030365E-1
1.805776926E0,-3.852051497E-2,1.001892090E-1,3.336553574E-1
1.815939280E0,-5.129522830E-2,9.200733900E-2,1.788749695E-1
1.826101633E0,-6.553854793E-2,1.025128365E-1,-3.223609924E-2
1.836263987E0,-4.729028791E-2,1.009391546E-1,-8.354854584E-2
1.846426340E0,-3.633976728E-2,6.439059973E-2,-2.515220642E-2
1.856588694E0,-3.166557848E-2,-4.862546921E-4,6.369590759E-3
1.866751047E0,-3.037909418E-2,-5.666399002E-2,2.329349518E-2
1.876913401E0,-3.259656578E-2,-8.693987131E-2,3.988075256E-2
1.887075754E0,-5.311410129E-2,-7.829409838E-2,4.181098938E-2
1.897268625E0,-5.471520126E-2,-2.226829529E-2,4.595756531E-2
1.907430979E0,-3.088179231E-2,3.765201569E-2,4.742813110E-2
1.917593332E0,-6.336703897E-3,8.060425520E-2,6.054592133E-2
1.927755686E0,1.682664454E-2,1.143476963E-1,6.380176544E-2
1.937918039E0,2.279160172E-2,1.064998507E-1,7.165908813E-2
1.948080393E0,2.193959057E-2,6.023442745E-2,6.521320343E-2
1.958242746E0,2.173577994E-2,2.122175694E-2,7.070255280E-2
1.968405100E0,9.595081210E-4,-1.830172539E-2,1.114358902E-1
1.978567453E0,9.226098657E-3,-2.164769173E-2,1.228361130E-1
1.988729807E0,5.524210632E-3,-3.697037697E-3,3.214931488E-2
1.998892160E0,8.931867778E-3,1.947057247E-2,3.072071075E-2
2.009054514E0,-1.145720482E-2,4.357844591E-2,9.280395508E-2
2.019216867E0,-1.666811854E-2,3.750729561E-2,-9.506225586E-3
2.029379221E0,1.500017196E-2,3.921288252E-2,-1.522846222E-1
2.039572092E0,2.813887596E-2,3.430229425E-2,-1.789360046E-1
2.049734446E0,1.216208935E-2,4.983007908E-2,-1.127071381E-1
2.059896799E0,-3.099066019E-2,5.132144690E-2,-2.619647980E-2
2.070059153E0,-5.823682249E-2,3.485953808E-2,-1.682758331E-2
2.080221506E0,-6.901176274E-2,2.843129635E-2,-5.951595306E-2
2.090383860E0,-3.219944239E-2,3.411269188E-2,-1.856517792E-2
2.100546213E0,-2.977982163E-3,3.649049997E-2,8.293914795E-2
2.110708567E0,6.500154734E-3,3.710269928E-2,9.981441498E-2
2.120870920E0,-3.597199917E-3,4.389446974E-2,4.554939270E-2
2.131033274E0,-2.555324137E-2,7.523274422E-2,-3.138732910E-2
2.141195627E0,-3.739881516E-2,1.180980802E-1,-7.366752625E-2
2.151357981E0,-3.680239618E-2,1.113938689E-1,-4.651451111E-2
2.161520334E0,-2.691543102E-2,9.052532911E-2,2.519702911E-2
2.171713205E0,-2.460749447E-2,4.251712561E-2,7.917690277E-2
2.181875559E0,-2.030855417E-2,3.918290138E-3,9.433555603E-2
2.192037912E0,-8.919924498E-3,-9.593784809E-3,6.897544861E-2
2.202200266E0,-1.925051212E-3,2.793884277E-2,3.923702240E-2
2.212362619E0,3.945529461E-4,5.716645718E-2,5.455017090E-4
2.222524973E0,-1.147428155E-2,8.644539118E-2,-2.086448669E-2
2.232687326E0,-3.042787313E-2,8.290570974E-2,-6.426811218E-3
2.242849680E0,-3.516685963E-2,7.780498266E-2,7.076263428E-4
2.253012033E0,-2.338384092E-2,5.168473721E-2,3.138542175E-2
2.263174387E0,-1.629130542E-2,2.763795853E-2,6.618785858E-2
2.273336741E0,-6.716936827E-3,1.896697283E-2,8.144092560E-2
2.283499094E0,3.067538142E-3,8.580327034E-3,9.629821777E-2
2.293661448E0,-1.060402393E-2,2.283596992E-2,4.691028595E-2
2.303854319E0,-4.813745618E-3,2.237707376E-2,-2.049255371E-2
2.314016672E0,-1.067069173E-2,4.215461016E-2,-4.402828217E-2
2.324179026E0,-1.190644503E-2,7.031893730E-2,-2.222537994E-2
2.334341379E0,-2.106589079E-2,7.567512989E-2,2.054214478E-2
2.344503733E0,-2.365709841E-2,6.218713522E-2,6.257438660E-2
2.354666086E0,-2.659963071E-2,3.161495924E-2,5.420684814E-2
2.364828440E0,-2.417553961E-2,2.173662186E-2,4.119300842E-2
2.374990793E0,9.569495916E-3,3.586500883E-3,6.621742249E-2
2.385153147E0,-1.157009602E-2,9.027123451E-4,1.001224518E-1
2.395315500E0,-3.972113132E-2,3.713399172E-2,5.701065063E-3
2.405477854E0,-2.511037886E-2,8.016034961E-2,-8.916759491E-2
2.415640207E0,2.987022698E-2,7.638773322E-2,1.146602631E-2
2.425802561E0,6.807747483E-2,6.825229526E-2,7.940673828E-2
2.435964914E0,4.257456958E-2,4.511624575E-2,8.717250824E-2
2.446127268E0,-3.585487604E-3,2.438864112E-2,8.770942688E-2
2.456320139E0,-5.602619052E-2,3.072300553E-2,-2.296447754E-2
2.466482492E0,-5.039352179E-2,8.422258496E-2,-2.095212936E-1
2.476644846E0,-2.339929342E-2,1.058962345E-1,-2.577304840E-1
2.486807199E0,-2.878692746E-2,1.226866543E-1,-3.794193268E-2
2.496969553E0,-4.122635722E-2,9.206569195E-2,1.945276260E-1
2.507131907E0,-4.572592676E-2,6.577232480E-2,2.574768066E-1
2.517294260E0,-5.238988996E-2,4.216951132E-2,1.255664825E-1
2.527456614E0,-5.568829179E-2,5.535984039E-2,-3.006553650E-2
2.537618967E0,-3.481508791E-2,5.897051096E-2,-1.263179779E-1
2.547781321E0,-2.136752009E-2,5.579158664E-2,-1.097650528E-1
2.557943674E0,-7.708713412E-3,1.958814263E-2,-2.509593964E-2
2.568136545E0,9.143501520E-3,-3.167846799E-2,8.177947998E-2
2.578298899E0,-1.285715401E-2,-4.880210757E-2,1.322364807E-1
2.588461252E0,-3.054906428E-2,-2.988505363E-2,1.133346558E-1
2.598623606E0,-3.505104780E-2,3.788828850E-3,4.036426544E-2
2.608785959E0,-4.405631125E-2,5.092674494E-2,1.121807098E-2
2.618948313E0,-3.039182723E-2,9.347751737E-2,1.804637909E-2
2.629110666E0,-1.830290258E-2,1.129324734E-1,3.182888031E-2
2.639273020E0,-2.378091216E-3,1.047502160E-1,4.305839539E-2
2.649435373E0,1.425206661E-3,7.633709908E-2,4.465484619E-2
2.659628244E0,-6.846025586E-3,5.787110329E-2,3.682327271E-2
2.669790598E0,-2.967494726E-2,5.142593384E-2,4.086303711E-2
2.679952951E0,-1.022206247E-2,3.988897800E-2,2.591705322E-2
2.690115305E0,-6.542056799E-4,2.793303132E-2,4.447078705E-2
2.700277658E0,-2.397570014E-2,1.524659991E-2,9.790420532E-2
2.710440012E0,-1.948590577E-2,1.131996512E-2,4.167938232E-2
2.720602366E0,1.723413169E-2,9.526252747E-3,-7.730579376E-2
2.730764719E0,1.159946620E-2,3.465819359E-2,-7.116317749E-2
2.740927073E0,-3.677566350E-2,4.382735491E-2,4.354190826E-2
2.751089426E0,-6.386522949E-2,6.208023429E-2,1.183643341E-1
2.761251780E0,-6.067639589E-2,6.722125411E-2,5.708789825E-2
2.771414133E0,-4.660880566E-2,7.922059298E-2,-2.899646759E-2
2.781576487E0,-2.204966545E-2,9.416109324E-2,-4.980278015E-2
2.791769358E0,8.360832930E-3,1.193222404E-1,-8.840560913E-3
2.801931711E0,1.861174405E-2,9.018567204E-2,6.689643860E-2
2.812063547E0,2.381221950E-2,7.544878125E-2,9.165859222E-2
2.822225901E0,2.197644114E-2,1.498028636E-2,7.812023163E-2
2.832388254E0,6.356775761E-3,-5.222350359E-3,2.465820312E-2
2.842581125E0,-1.349139214E-2,-2.764409781E-2,-1.368427277E-2
2.852743479E0,-2.813975513E-2,-1.390990615E-2,-2.063941956E-2
2.862905832E0,-3.753055632E-2,-2.405762672E-3,-1.807689667E-2
2.873068186E0,-3.917981684E-2,3.512406349E-2,-2.504158020E-2
2.883230539E0,-3.353618085E-2,6.540060043E-2,-2.943515778E-2
2.893392893E0,-2.348251641E-2,6.722301245E-2,-1.239967346E-2
2.903555246E0,-1.617537439E-2,7.646766305E-2,1.848506927E-2
2.913717600E0,-2.120411396E-2,6.183838844E-2,3.230953217E-2
2.923879953E0,-1.912170649E-2,5.194762349E-2,2.217674255E-2
2.934042307E0,-1.466298103E-2,3.967237473E-2,-4.250526428E-3
2.944204660E0,-2.433420718E-2,4.910838604E-2,-1.133441925E-2
2.954367014E0,-1.704980433E-2,4.935145378E-2,-1.353740692E-2
2.964529367E0,-1.224583387E-2,4.290908575E-2,-3.897666931E-3
2.974722239E0,-1.939643919E-2,4.167500138E-2,1.503467560E-2
2.984884592E0,-1.712913811E-2,4.528021812E-2,1.713848114E-2
2.995046946E0,-1.485815644E-2,2.749308944E-2,2.155876160E-2
3.005209299E0,-1.011346281E-2,2.153810859E-2,1.877689362E-2
3.015371653E0,-1.004429162E-2,2.969509363E-2,-5.189895630E-3
3.025534006E0,-5.069911480E-3,2.820968628E-2,-1.222133636E-2
3.035696360E0,-7.092505693E-3,4.796913266E-2,1.870059967E-2
3.045858713E0,-6.830662489E-3,4.105877876E-2,3.965473175E-2
3.056021067E0,-6.767809391E-3,4.798674583E-2,4.360866547E-2
3.066183420E0,-1.173467934E-2,4.945626855E-2,1.201152802E-2
3.076345774E0,-2.381965518E-2,4.835078120E-2,-3.085231781E-2
3.086508127E0,-1.466512680E-2,5.949336290E-2,-4.927349091E-2
3.096670481E0,-8.166491985E-3,4.747161269E-2,-3.899383545E-2
3.106863352E0,-2.143174410E-3,3.608301282E-2,1.365470886E-2
3.117025705E0,-1.278977096E-2,2.709019184E-2,6.298732758E-2
3.127188059E0,-3.489272296E-2,1.244989038E-2,6.177425385E-2
3.137350412E0,-5.384251475E-2,1.381763816E-2,3.912925720E-3
3.147512766E0,-6.454765797E-2,2.915254235E-2,-2.222537994E-2
3.157675119E0,-2.499483526E-2,4.926151037E-2,1.836395264E-2
3.167837473E0,-2.410355210E-2,5.953061581E-2,7.945919037E-2
3.177999826E0,-4.783785343E-2,7.612943649E-2,7.315444946E-2
3.188162180E0,-2.295851707E-2,9.000608325E-2,-4.181957245E-2
3.198324533E0,2.715297043E-2,7.933175564E-2,-1.664094925E-1
3.208486887E0,7.762554288E-2,7.593253255E-2,-1.138401031E-1
3.218679758E0,6.931567192E-2,4.098004103E-2,4.013061523E-3
3.228842112E0,-1.930856705E-2,-1.014050841E-2,1.316051483E-1
3.239004465E0,-9.042285383E-2,-1.427537203E-2,7.241344452E-2
3.249166819E0,-6.109796464E-2,4.833608866E-3,-1.392421722E-1
3.259329172E0,-2.772767842E-2,4.428711534E-2,-2.359437943E-1
3.269491526E0,-2.211493254E-2,7.619759440E-2,-8.042716980E-2
3.279653879E0,-4.439379275E-2,9.702157974E-2,1.597461700E-1
3.289816233E0,-5.520661175E-2,9.446391463E-2,2.562446594E-1
3.299978586E0,-4.538230598E-2,8.894366026E-2,1.926794052E-1
3.310140940E0,-2.932959795E-2,7.192781568E-2,3.810214996E-2
3.320303293E0,-8.670434356E-3,5.253833532E-2,-9.500598907E-2
3.330465647E0,1.562801003E-2,5.101001263E-2,-1.879701614E-1
3.340658518E0,1.129636168E-2,1.314681768E-2,-1.422100067E-1
3.350820871E0,-1.058073342E-2,-3.500658274E-2,-7.335662842E-3
3.360983225E0,-5.202224851E-2,-7.107317448E-2,1.038770676E-1
3.371145578E0,-7.085624337E-2,-4.672783613E-2,1.092128754E-1
3.381307932E0,-7.760360837E-2,1.354676485E-2,6.717491150E-2
3.391470285E0,-4.699431360E-2,7.464003563E-2,1.394844055E-2
3.401632639E0,-1.509045064E-2,1.187519431E-1,-9.931564331E-3
3.411794992E0,1.381768286E-2,1.489855945E-1,-3.103351593E-2
3.421957346E0,2.572974563E-2,1.325117946E-1,-1.391124725E-2
3.432119699E0,2.322483063E-2,8.399623632E-2,3.131580353E-2
3.442282053E0,1.121450961E-2,3.172889352E-2,4.499053955E-2
3.452444407E0,-6.924718618E-4,1.087456942E-3,6.079673767E-2
3.462606760E0,-7.615119219E-3,6.425380707E-4,5.730342865E-2
3.472769114E0,-8.644163609E-5,8.568823338E-3,1.616001129E-2
3.482931467E0,-1.401078701E-2,1.813885570E-2,6.079006195E-2
3.493093821E0,-4.413005710E-2,2.652417123E-2,9.265327454E-2
3.503256174E0,2.483829856E-3,3.382721543E-2,-1.318359375E-2
3.513418528E0,4.186937213E-2,4.373222589E-2,-1.737689972E-1
3.523580881E0,4.583537579E-3,5.323953927E-2,-1.801500320E-1
3.533743235E0,-4.246020317E-2,5.539813638E-2,-3.995609283E-2
3.543936106E0,-5.856473744E-2,4.397200048E-2,9.304141998E-2
3.554098459E0,-4.127210379E-2,4.115663469E-2,1.032018661E-1
3.564260813E0,-1.456491649E-2,7.045108080E-2,4.703807831E-2
3.574423166E0,1.878097653E-3,7.264721394E-2,-5.759239197E-3
3.584585520E0,1.757051051E-2,8.201529086E-2,-5.691528320E-3
3.594747873E0,1.373539865E-2,7.270365953E-2,2.279186249E-2
3.604910227E0,-6.519258022E-3,4.698453844E-2,4.833316803E-2
3.615072580E0,-3.331680596E-2,2.142389119E-2,3.792476654E-2
3.625265451E0,-5.012446642E-2,-1.660764217E-3,4.120826721E-3
3.635427805E0,-5.243979394E-2,4.144415259E-3,-4.084491730E-2
3.645590158E0,-4.778449237E-2,1.001901925E-2,-2.827358246E-2
3.655752512E0,-4.085172713E-2,2.295744419E-2,-1.127433777E-2
3.665914866E0,-1.503814757E-2,4.486206174E-2,1.719951630E-2
3.676077219E0,-3.482386470E-3,4.716184735E-2,1.916027069E-2
3.686239573E0,-3.844186664E-3,6.309276819E-2,9.285926819E-3
3.696401926E0,-1.091879606E-2,6.922833622E-2,9.081840515E-3
3.706564280E0,-1.777198911E-2,7.060866058E-2,1.771926880E-3
3.716726633E0,-1.758202910E-2,6.289365888E-2,-5.424499512E-3
3.726888987E0,-3.154914081E-2,5.811132491E-2,-1.486682892E-2
3.737051340E0,-2.619455755E-2,4.910786450E-2,-3.117370605E-2
3.747213694E0,-3.042927384E-2,4.793475568E-2,-3.066539764E-2
3.757376047E0,-1.333047450E-2,3.997406363E-2,-1.593875885E-2
3.767568918E0,-6.234347820E-3,2.053710818E-2,5.610466003E-3
3.777731272E0,-1.830162108E-2,2.478347719E-2,5.486488342E-3
3.787893625E0,-6.579533219E-3,2.174852788E-2,7.758140564E-3
3.798055979E0,-6.854906678E-3,4.472193122E-2,5.435943604E-4
3.808218332E0,-2.124492824E-2,4.112824798E-2,-1.818656921E-3
3.818380686E0,-2.833259106E-2,5.159448087E-2,5.304336548E-3
3.828543039E0,-2.846199274E-2,5.707305670E-2,1.459312439E-2
3.838705393E0,-5.082637072E-3,5.501317978E-2,3.795909882E-2
3.848867746E0,1.481309533E-3,5.243106186E-2,5.611515045E-2
3.859030100E0,-1.094026864E-2,4.925465584E-2,4.326534271E-2
3.869192453E0,-1.589909196E-2,4.583473504E-2,-8.201599121E-5
3.879354807E0,-2.788579464E-2,4.542244971E-2,-5.214405060E-2
3.889517160E0,-1.585356891E-2,3.425592184E-2,-7.490539551E-2
3.899710032E0,-1.719698310E-3,2.926194668E-2,-5.465316772E-2
3.909872385E0,-1.617951691E-2,2.982322872E-2,2.995491028E-3
3.920034739E0,-2.566312253E-2,2.307216823E-2,4.303455353E-2
3.930197092E0,-4.902334511E-2,3.709428012E-2,3.044223785E-2
3.940359446E0,-4.563297331E-2,4.057754576E-2,8.682250977E-3
3.950521799E0,-1.147121191E-2,4.600220919E-2,1.092243195E-2
3.960684153E0,-2.807557583E-2,4.364687204E-2,6.276512146E-2
3.970846506E0,-5.726012588E-2,6.194755435E-2,8.045101166E-2
3.981008860E0,-1.830276847E-2,7.486158609E-2,-2.041053772E-2
3.991171213E0,2.742776275E-2,6.713645160E-2,-1.524496078E-1
4.001333567E0,7.627387345E-2,5.441695452E-2,-1.284961700E-1
4.011495920E0,5.201871693E-2,2.471081913E-2,-2.699661255E-2
4.021658274E0,-2.408576012E-2,-1.363572478E-2,9.163093567E-2
4.031813411E0,-8.076968789E-2,-1.674202085E-2,7.093715668E-2
4.041975765E0,-3.772374988E-2,1.482880116E-2,-1.028919220E-1
4.052168636E0,1.123858988E-2,3.966307640E-2,-1.979465485E-1
4.062330989E0,-1.248417795E-2,6.341840327E-2,-9.515094757E-2
4.072493343E0,-5.610613525E-2,7.359415293E-2,1.026840210E-1
4.082655696E0,-7.331933081E-2,8.224990964E-2,2.474088669E-1
4.092818050E0,-5.837456882E-2,8.341538906E-2,2.407226562E-1
4.102980403E0,-2.121721208E-2,6.516520679E-2,1.184005737E-1
4.113142757E0,1.996287704E-2,6.742236018E-2,-5.146884918E-2
4.123305110E0,2.674046159E-2,3.685477376E-2,-1.736145020E-1
4.133467464E0,1.518748701E-2,-8.353635669E-3,-1.848325729E-1
4.143629817E0,-1.332756877E-2,-4.431740940E-2,-7.766151428E-2
4.153792171E0,-6.356836855E-2,-4.621782899E-2,4.178142548E-2
4.163954525E0,-8.187182248E-2,-2.296277881E-2,1.119480133E-1
4.174147396E0,-6.993316114E-2,3.865444660E-2,7.925891876E-2
4.184309749E0,-2.601838112E-2,8.877865970E-2,3.531742096E-2
4.194472103E0,7.080852985E-3,1.165439039E-1,-3.136634827E-3
4.204634456E0,3.029945493E-2,1.373016685E-1,-1.256084442E-2
4.214796810E0,2.047289908E-2,1.135480404E-1,-2.178955078E-2
4.224959163E0,2.526144683E-2,8.113431931E-2,-5.703449249E-2
4.235121517E0,2.279736102E-2,3.103713691E-2,-1.910037994E-1
4.245283870E0,2.180811763E-2,-3.584290296E-2,-3.390655518E-1
4.255446224E0,1.143068075E-3,-6.400121748E-2,-3.615932465E-1
4.265608577E0,2.104614675E-2,-4.713785648E-2,-1.731767654E-1
4.275770931E0,-9.076744318E-4,-2.830065787E-2,2.317457199E-1
4.285933284E0,-3.442220390E-2,5.574822426E-3,5.208339691E-1
4.296095638E0,-1.260265708E-2,5.181118846E-2,4.527244568E-1
4.306257991E0,8.115217090E-3,9.731921554E-2,1.448469162E-1
4.316450862E0,6.282851100E-3,1.316017658E-1,-1.151590347E-1
4.326613216E0,-2.628059685E-2,1.230345666E-1,-2.384061813E-1
4.336775569E0,-4.365885258E-2,9.499197453E-2,-2.272682190E-1
4.346937923E0,-3.738442063E-2,6.170586497E-2,-1.430358887E-1
4.357100276E0,-1.676015556E-2,4.530265927E-2,-1.528930664E-2
4.367262630E0,-8.101716638E-3,3.642994165E-2,8.897399902E-2
4.377424983E0,-1.202411950E-2,4.288958758E-2,1.607923508E-1
4.387587337E0,-1.213480532E-2,3.513477743E-2,1.604137421E-1
4.397749691E0,-1.759330928E-2,2.532809228E-2,1.151218414E-1
4.407912044E0,-2.057722211E-2,2.356683463E-2,4.457092285E-2
4.418104915E0,-2.552789450E-2,3.552992642E-2,-1.535224915E-2
4.428267269E0,-2.999511361E-2,4.039048031E-2,-3.636932373E-2
4.438429622E0,-2.923919261E-2,5.492935330E-2,-7.421493530E-3
4.448591976E0,-3.771354258E-2,6.231430918E-2,1.626586914E-2
4.458754329E0,-3.896036744E-2,6.733016670E-2,-1.013660431E-2
4.468916683E0,-3.328546882E-2,6.334856153E-2,-3.831577301E-2
4.479079036E0,-2.810624242E-2,5.786783248E-2,-4.947376251E-2
4.489241390E0,-1.394966245E-2,4.864977300E-2,-2.261447906E-2
4.499403743E0,-1.453664899E-2,5.899586901E-2,1.323795319E-2
4.509566097E0,-2.465604246E-2,6.188593060E-2,3.186798096E-2
4.519728450E0,-2.959536016E-2,5.253143981E-2,3.837013245E-2
4.529890804E0,-2.236171067E-2,4.521350563E-2,2.354621887E-2
4.540053157E0,-2.443067729E-2,3.759895265E-2,4.187583923E-3
4.550215511E0,-2.430422604E-2,2.501767874E-2,-1.234054565E-2
4.560408382E0,-2.445140481E-2,1.475324295E-2,-7.410049438E-3
4.570570735E0,-2.268300951E-2,2.550027333E-2,1.873970032E-2
4.580733089E0,-1.647073030E-2,2.859595418E-2,4.207992554E-2
4.590895442E0,-1.504147053E-2,4.068069533E-2,5.080413818E-2
4.601057796E0,-2.516449988E-2,6.164660677E-2,3.580856323E-2
4.611220150E0,-2.775092423E-2,7.513591647E-2,4.483222961E-3
4.621382503E0,-2.079942822E-2,7.226203382E-2,-2.629756927E-2
4.631544857E0,-4.467949271E-3,6.078884006E-2,-4.944038391E-2
4.641707210E0,-3.977268934E-4,6.193797290E-2,-4.147529602E-2
4.651869564E0,-1.454055309E-3,5.191703141E-2,-1.713371277E-2
4.662031917E0,-2.719417214E-3,3.986841440E-2,2.049446106E-3
4.672194271E0,-1.339259744E-2,5.151061714E-2,1.386547089E-2
4.682356624E0,-1.914179325E-2,3.912753612E-2,1.365184784E-2
4.692518978E0,-1.748192310E-2,3.390102088E-2,1.586437225E-2
4.702711849E0,-1.323889196E-2,4.061099887E-2,1.095962524E-2
4.712874202E0,-2.545851469E-2,4.268035293E-2,1.326751709E-2
4.723036556E0,-2.343574166E-2,3.992065787E-2,3.436851501E-2
4.733198909E0,-3.831122816E-2,4.893551767E-2,2.909946442E-2
4.743361263E0,-5.081912875E-2,4.792060703E-2,2.155971527E-2
4.753523616E0,-3.482767940E-2,5.852656066E-2,1.183795929E-2
4.763685970E0,-2.158035338E-2,5.225686729E-2,4.241657257E-2
4.773848323E0,-3.701078892E-2,4.797333479E-2,7.954597473E-2
4.784010677E0,-4.048509896E-2,7.890167832E-2,9.592056274E-3
4.794173030E0,-3.152351081E-2,8.876582980E-2,-1.347360611E-1
4.804335384E0,2.088481188E-2,6.729055941E-2,-1.488399506E-1
4.814497737E0,4.845376313E-2,4.594613612E-2,-7.776832581E-2
4.824660091E0,1.720696688E-2,1.678714156E-2,2.752590179E-2
4.834822444E0,-5.725459754E-2,4.406988621E-3,7.891464233E-2
4.845015316E0,-6.193700433E-2,2.228559554E-2,-1.708507538E-2
4.855177669E0,-3.066784143E-2,3.761459887E-2,-1.326360703E-1
4.865340023E0,1.099614799E-2,6.579941511E-2,-1.398286819E-1
4.875502376E0,-4.659175873E-3,8.572156727E-2,-6.665611267E-2
4.885664730E0,-4.329626262E-2,9.935337305E-2,4.065799713E-2
4.895827083E0,-5.415584147E-2,7.929986715E-2,1.438455582E-1
4.905989437E0,-3.555868566E-2,7.172293961E-2,2.122011185E-1
4.916151790E0,-1.950651407E-2,6.130640209E-2,1.636896133E-1
4.926314144E0,6.604328752E-3,4.363818467E-2,6.179237366E-2
4.936476497E0,9.215354919E-3,2.941945195E-2,-1.000213623E-2
4.946638851E0,-1.347124577E-2,1.039281487E-2,-4.749393463E-2
4.956801204E0,-3.261281550E-2,1.951232553E-3,-6.307792664E-2
4.966963558E0,-5.819568038E-2,2.061158419E-3,-5.241680145E-2
4.977125911E0,-6.438803673E-2,1.768492162E-2,-4.906845093E-2
4.987288265E0,-5.404624343E-2,5.068717897E-2,-2.457427979E-2
4.997450618E0,-3.234827518E-2,7.927860320E-2,9.035110474E-3
5.007643489E0,-1.353776455E-2,9.830580652E-2,2.544689178E-2
5.017805843E0,-4.793673754E-3,9.351189435E-2,3.450679779E-2
5.027968196E0,-3.809437156E-3,8.430865407E-2,7.963180542E-3
5.038130550E0,-7.706642151E-3,4.710589349E-2,7.429122925E-4
5.048292903E0,-6.673753262E-3,2.956914902E-2,-3.888130188E-3
5.058455257E0,-3.057524562E-3,3.106626868E-2,1.040267944E-2
5.068617610E0,-6.465524435E-3,3.955915570E-2,1.024341583E-2
5.078779964E0,-7.409363985E-3,3.095760942E-2,1.213369370E-1
5.088942317E0,-3.094907105E-2,3.291815519E-2,1.830558777E-1
5.099104671E0,-9.910285473E-3,4.973258078E-2,5.705261230E-2
5.109267025E0,2.574306726E-2,7.265578210E-2,-1.091594696E-1
5.119429378E0,7.951766253E-3,5.857452750E-2,-1.661586761E-1
5.129591732E0,-1.168283820E-2,5.406711996E-2,-1.183519363E-1
5.139784603E0,-3.987713158E-2,5.389669538E-2,-5.496597290E-2
5.149946956E0,-3.992873430E-2,4.510588944E-2,1.917839050E-2
5.160109310E0,-3.528471291E-2,4.561556876E-2,8.740615845E-2
5.170271663E0,-2.100299299E-2,4.497115314E-2,1.000957489E-1
5.180434017E0,7.502317429E-3,6.462018192E-2,8.659458160E-2
5.190596370E0,1.526027918E-4,6.893487275E-2,7.579517365E-2
5.200758724E0,-9.489670396E-3,5.615621805E-2,5.330276489E-2
5.210921077E0,-4.617825150E-3,4.824396968E-2,-6.634712219E-3
5.221083431E0,-1.670520008E-2,3.394854069E-2,-5.612468719E-2
5.231245784E0,-2.931576967E-2,3.255426884E-2,-4.564952850E-2
5.241408138E0,-3.019884229E-2,4.131466150E-2,-4.678726196E-3
5.251570491E0,-4.499869049E-2,5.000668764E-2,2.370166779E-2
5.261732845E0,-4.493987560E-2,7.042610645E-2,2.329730988E-2
5.271925716E0,-3.754957020E-2,6.429031491E-2,-7.825851440E-3
5.282088069E0,-1.816755533E-2,5.367439985E-2,-3.838634491E-2
5.292250423E0,-3.643378615E-3,5.535897613E-2,-2.112197876E-2
5.302412776E0,-1.029744744E-3,5.007332563E-2,2.179336548E-2
5.312575130E0,-1.478968561E-2,4.252710938E-2,3.091144562E-2
5.322737483E0,-2.811233699E-2,5.162283778E-2,2.329349518E-2
5.332899837E0,-2.922962606E-2,5.100008845E-2,1.344776154E-2
5.343062191E0,-3.507885337E-2,4.814553261E-2,-8.038520813E-3
5.353224544E0,-2.913962305E-2,3.856271505E-2,-1.735401154E-2
5.363386898E0,-2.821151912E-2,2.706900239E-2,1.370429993E-2
5.373549251E0,-2.954173088E-2,3.489717841E-2,3.707790375E-2
5.383711605E0,-2.822978795E-2,4.034969211E-2,6.479835510E-2
5.393904476E0,-4.065190256E-2,3.849101067E-2,7.078933716E-2
5.404066829E0,-2.883480489E-2,4.838520288E-2,7.199287415E-2
5.414229183E0,-1.447986066E-2,5.596089363E-2,5.662536621E-2
5.424391536E0,-1.187674701E-2,7.338380814E-2,2.731227875E-2
5.434553890E0,-1.170465350E-2,7.253509760E-2,-2.280616760E-2
5.444716243E0,-1.195654273E-2,7.066252828E-2,-6.971931458E-2
5.454878597E0,-3.215909004E-3,6.583943963E-2,-8.283615112E-2
5.465040950E0,-9.117633104E-3,5.821661651E-2,-7.218933105E-2
5.475203304E0,-1.026995480E-2,4.516854882E-2,-6.412982941E-2
5.485365657E0,-1.343365014E-2,3.109888732E-2,-3.728103638E-2
5.495528011E0,-1.852211356E-2,2.744005620E-2,-1.562500000E-2
5.505690364E0,-2.094437182E-2,2.435095608E-2,-4.402160645E-2
5.515852718E0,-3.280530870E-2,3.606247902E-2,-6.473827362E-2
5.526015071E0,-2.152235806E-2,3.619702160E-2,-5.442237854E-2
5.536177425E0,-1.570720971E-2,3.168824315E-2,-6.487846375E-3
5.546370296E0,-1.318632066E-2,5.504104495E-2,4.066658020E-2
5.556532650E0,-1.833014190E-2,4.112733901E-2,4.930114746E-2
5.566695003E0,-2.332930267E-2,3.532676399E-2,4.366016388E-2
5.576857357E0,-1.882949471E-2,1.846811175E-2,7.359600067E-2
5.587019710E0,-4.309989512E-2,2.405413240E-2,1.361732483E-1
5.597182064E0,-4.585036635E-2,4.204292595E-2,1.194620132E-1
5.607344417E0,-1.502718031E-2,5.645381659E-2,-4.581737518E-2
5.617537288E0,4.018813372E-2,5.756053329E-2,-2.129058838E-1
5.627699642E0,7.595020533E-2,4.258807003E-2,-2.612361908E-1
5.637861995E0,2.734042704E-2,2.411342412E-2,-1.433525085E-1
5.648024349E0,-5.244985223E-2,5.783654749E-3,3.136634827E-2
5.658186702E0,-7.170078158E-2,5.040027201E-3,4.237174988E-2
5.668349056E0,-2.833367884E-2,2.355275303E-2,-5.066013336E-2
5.678511409E0,4.769995809E-3,7.351316512E-2,-9.471511841E-2
5.688673763E0,-2.125005424E-2,1.007382348E-1,3.776550293E-3
5.698836116E0,-6.272722781E-2,1.099242717E-1,1.265192032E-1
5.708998470E0,-7.929611206E-2,1.044611335E-1,1.762809753E-1
5.719160823E0,-4.859977961E-2,7.884365320E-2,1.354503632E-1
5.729323177E0,-3.173221648E-2,5.443303287E-2,4.571628571E-2
5.739485530E0,-1.618230343E-2,2.952537686E-2,-4.960536957E-2
5.749647884E0,4.842281342E-3,-6.952513009E-3,-1.338472366E-1
5.759810237E0,1.639869809E-2,-3.711610287E-2,-1.504249573E-1
5.770003108E0,1.315861940E-3,-5.609921366E-2,-1.122360229E-1
5.780165462E0,-1.855707169E-2,-5.510917306E-2,-2.503585815E-2
5.790327816E0,-4.170954227E-2,-2.117314935E-2,3.945732117E-2
5.800490169E0,-4.568107426E-2,2.300548553E-2,7.217979431E-2
5.810652523E0,-3.139851987E-2,6.709915400E-2,8.780860901E-2
5.820814876E0,-8.617296815E-3,1.063622683E-1,1.173257828E-1
5.830977230E0,1.336888969E-2,1.054904759E-1,1.344470978E-1
5.841139583E0,3.029128909E-2,1.009518057E-1,8.026313782E-2
5.851301937E0,2.611848712E-2,7.247069478E-2,3.402709961E-3
5.861464290E0,1.526257396E-2,4.268440604E-2,-7.678604126E-2
5.871626644E0,-4.745259881E-3,1.493069530E-2,-1.106748581E-1
5.881788997E0,5.889013410E-3,3.482267261E-3,-1.108875275E-1
5.891951351E0,-9.776055813E-4,-8.817836642E-3,-2.162933350E-3
5.902113704E0,-4.627141356E-2,-4.478752613E-3,1.588973999E-1
5.912306575E0,-5.507136881E-2,-9.020924568E-3,1.421365738E-1
5.922468929E0,-1.545485854E-2,1.282739639E-2,-2.073192596E-2
5.932631282E0,5.215838552E-3,2.209424973E-2,-1.121406555E-1
5.942793636E0,-2.493627369E-2,4.384288192E-2,-1.052045822E-1
5.952955989E0,-5.115124583E-2,4.535859823E-2,-7.473087311E-2
5.963118343E0,-5.390238762E-2,5.518025160E-2,-2.574062347E-2
5.973280696E0,-3.526981175E-2,6.564253569E-2,4.606437683E-2
5.983443050E0,-7.710278034E-3,6.613728404E-2,1.212940216E-1
5.993605403E0,4.719898105E-3,5.343273282E-2,1.480083466E-1
6.003767757E0,1.893837750E-2,3.931647539E-2,1.032218933E-1
6.013930110E0,2.421900630E-3,2.200528979E-2,2.382183075E-2
6.024092464E0,-8.519411087E-3,1.423454285E-2,-4.719829559E-2
6.034254817E0,-1.161247492E-2,1.423701644E-2,-9.090042114E-2
6.044447689E0,-2.178147435E-2,1.032263041E-2,-5.812931061E-2
6.054610042E0,-2.742382884E-2,-2.987384796E-3,2.130508423E-2
6.064772396E0,-3.132379055E-2,1.339551806E-2,4.961872101E-2
6.074934749E0,-3.342051804E-2,1.346808672E-2,3.243350983E-2
6.085097103E0,-3.093920648E-2,3.594982624E-2,-8.109092712E-3
6.095259456E0,-9.321600199E-3,4.583466053E-2,-5.369186401E-3
6.105421810E0,-1.110604405E-2,5.561888218E-2,4.414558411E-3
6.115584163E0,-2.868562937E-2,6.326878071E-2,2.264022827E-3
6.125746517E0,-4.055456817E-2,6.898352504E-2,-6.877899170E-3
6.135908870E0,-4.015034437E-2,6.611493230E-2,-2.063846588E-2
6.146071224E0,-2.789661288E-2,4.090395570E-2,-5.575180054E-3
6.156233577E0,-1.359538734E-2,5.759659410E-2,6.127166748E-2
6.166395931E0,-2.364018559E-2,8.255809546E-2,6.783390045E-2
6.176558284E0,-3.388302028E-2,1.236575246E-1,-4.145431519E-2
6.186720638E0,-2.784338593E-2,1.232119799E-1,-1.532773972E-1
6.196913509E0,-9.623616934E-4,1.042717695E-1,-1.304407120E-1
6.207075862E0,-6.261646748E-3,4.429918528E-2,-1.559543610E-2
6.217238216E0,-2.040006220E-2,-2.823472023E-2,1.233015060E-1
6.227400569E0,-2.462825179E-2,-8.101040125E-2,1.580085754E-1
6.237562923E0,-4.225313663E-3,-8.021950722E-2,5.958557129E-2
6.247725276E0,1.350845397E-2,-4.981625080E-2,-5.152511597E-2
6.257887630E0,3.838017583E-3,-3.371584415E-2,-6.610584259E-2
6.268049983E0,3.074914217E-3,2.570289373E-2,-1.209068298E-2
6.278212337E0,-3.353103995E-3,7.366800308E-2,1.728248596E-2
6.288374691E0,-1.381793618E-2,1.179466844E-1,3.201389313E-2
6.298537044E0,-1.691602170E-2,1.214485168E-1,6.073188782E-2
6.308699398E0,-2.011963725E-2,1.255848408E-1,6.531524658E-2
6.318861751E0,-2.099969983E-2,1.219154000E-1,8.506774902E-3
6.329024105E0,-2.461950481E-2,1.136959195E-1,-2.107906342E-2
6.339216976E0,-2.638497949E-2,6.611734629E-2,-3.807067871E-2
6.349379329E0,-3.413172811E-2,4.111075401E-2,-1.089477539E-1
6.359541683E0,-2.157470584E-2,2.153825760E-2,-1.356611252E-1
6.369704036E0,1.169945300E-2,-1.943248510E-2,-1.074476242E-1
6.379866390E0,2.799195051E-2,-5.233287811E-2,-7.239818573E-2
6.390028743E0,-1.023656875E-2,-7.901197672E-2,8.511447906E-2
6.400191097E0,-7.470393181E-2,-1.013884544E-1,1.282100677E-1
6.410353450E0,-8.307924122E-2,-3.416419029E-2,5.077362061E-3
6.420515804E0,-5.472062528E-2,1.441007853E-2,-3.527927399E-2
6.430708675E0,-1.016110927E-2,6.667721272E-2,1.495151520E-1
6.440871028E0,-6.062649190E-3,1.205745935E-1,2.809810638E-1
6.451033382E0,-3.411800414E-2,1.312491894E-1,1.121931076E-1
6.461195735E0,-8.785586059E-2,1.142356396E-1,-1.123905182E-1
6.471358089E0,-8.639728278E-2,6.050658226E-2,-1.034288406E-1
6.481520442E0,-5.418204516E-2,-1.858019829E-2,5.898571014E-2
6.491682796E0,-2.437636256E-2,-8.593118191E-2,1.049203873E-1
6.501845150E0,-5.442917347E-3,-7.524204254E-2,5.300521851E-2
6.512007503E0,4.450153559E-2,-1.166168451E-1,3.461837769E-2
6.522169857E0,5.086430907E-2,-1.549336910E-1,4.672050476E-2
6.532332210E0,8.765533566E-3,-1.071875095E-1,7.549285889E-2
6.542494564E0,-1.084621996E-2,-3.813636303E-2,6.490707397E-2
6.552656917E0,-2.138544619E-2,9.966850281E-3,6.300926208E-3
6.562819271E0,-1.563252509E-2,5.247926712E-2,2.402496338E-2
6.572981624E0,-1.998826861E-3,7.347536087E-2,5.776596069E-2
6.583143978E0,1.046548039E-2,8.300685883E-2,5.056476593E-2
6.593306331E0,1.587624103E-2,6.513106823E-2,2.915763855E-2
6.603499202E0,6.398759782E-3,5.426228046E-2,-1.317024231E-2
6.613661556E0,1.783233881E-2,3.421533108E-2,-1.918315887E-2
6.623823909E0,8.789084852E-3,3.854382038E-2,-1.805591583E-2
6.633986263E0,1.816801727E-3,3.848409653E-2,-1.326961517E-1
6.644148616E0,3.198340535E-3,2.575123310E-2,-8.665466309E-2
6.654310970E0,-2.513712645E-2,1.702666283E-2,-4.872989655E-2
6.664473323E0,-3.883417696E-2,1.688158512E-2,-2.333660126E-1
6.674635677E0,-1.168170571E-2,1.248234510E-2,-2.842035294E-1
6.684798030E0,-8.930809796E-3,8.391022682E-3,-1.378908157E-1
6.694960384E0,-1.226718724E-2,-2.407133579E-3,-2.262973785E-2
6.705122737E0,-2.880119532E-2,5.001187325E-3,-7.716751099E-2
6.715315608E0,-2.217089385E-2,1.672166586E-2,-8.567237854E-2
6.725477962E0,-2.499876916E-2,5.459469557E-2,5.149841309E-3
6.735640316E0,-2.945303917E-2,7.047593594E-2,7.312965393E-2
6.745802669E0,-2.836324275E-2,8.602988720E-2,8.798027039E-2
6.755965023E0,-3.640617430E-2,7.528871298E-2,7.188701630E-2
6.766127376E0,-3.236220032E-2,6.265300512E-2,5.605125427E-2
6.776289730E0,-4.732366651E-2,4.840201139E-2,2.737045288E-3
6.786452083E0,-3.135306388E-2,3.778374195E-2,-5.185794830E-2
6.796614437E0,-2.552352846E-2,1.870721579E-2,-3.689861298E-2
6.806776790E0,-8.725576103E-3,2.608746290E-2,3.213214874E-2
6.816939144E0,-1.640490443E-2,8.332908154E-3,6.429958344E-2
6.827101497E0,-2.649526298E-2,1.296615601E-2,3.196907043E-2
6.837263851E0,-4.569670558E-2,3.088021278E-2,2.040863037E-4
6.847456722E0,-3.810548782E-2,5.800884962E-2,4.386901855E-3
6.857619075E0,-2.562192082E-2,9.017336369E-2,-1.271915436E-2
6.867781429E0,-2.035234123E-2,8.962839842E-2,-8.093833923E-3
6.877943782E0,-7.820643485E-3,8.987444639E-2,-2.003860474E-2
6.888106136E0,-7.072746754E-3,6.012415886E-2,-1.517295837E-2
6.898268489E0,-1.057197154E-2,3.365147114E-2,3.866195679E-3
6.908430843E0,-1.137480140E-2,1.459956169E-2,3.195762634E-2
6.918593196E0,-1.684629917E-2,2.198123932E-2,7.575988770E-3
6.928755550E0,-2.741925418E-2,2.966332436E-2,-6.796836853E-3
6.938917903E0,-1.472407579E-2,3.537625074E-2,4.290390015E-2
6.949080257E0,-5.420282483E-3,3.846621513E-2,5.624485016E-2
6.959273128E0,-1.562249660E-2,3.615003824E-2,4.093265533E-2
6.969435482E0,-2.556999028E-2,4.290628433E-2,4.598617554E-3
6.979597835E0,-1.847289503E-2,5.189609528E-2,-3.345012665E-2
6.989760189E0,-1.148192585E-2,6.142973900E-2,-4.483604431E-2
6.999922542E0,-6.920740008E-3,5.729728937E-2,-1.101970673E-2
7.010084896E0,9.130507708E-3,4.158043861E-2,5.765533447E-2
7.020247249E0,-5.806818604E-3,3.273159266E-2,5.417251587E-2
7.030409603E0,-1.755106449E-2,2.567541599E-2,2.001380920E-2
7.040571956E0,-1.895146072E-2,5.179911852E-2,-4.096984863E-3
7.050734310E0,-1.743797958E-2,4.688417912E-2,3.849506378E-2
7.060896663E0,-2.788327634E-2,4.425156116E-2,9.678840637E-2
7.071059017E0,-7.677453756E-2,3.809320927E-2,9.952354431E-2
7.081221370E0,-6.457003951E-2,4.996949434E-2,-8.464050293E-2
7.091383724E0,-1.109646261E-2,5.830878019E-2,-1.423225403E-1
7.101576595E0,3.472533822E-2,4.489845037E-2,9.002685547E-3
7.111738948E0,5.282208323E-2,4.390525818E-2,-1.266098022E-2
7.121901302E0,-8.615016937E-3,2.378225327E-2,-2.885246277E-2
7.132063655E0,-6.157578528E-2,-9.913504124E-3,3.051090240E-2
7.142226009E0,-5.942410231E-2,6.924569607E-3,-1.072168350E-1
7.152388362E0,-2.432286739E-2,3.703504801E-2,-1.688222885E-1
7.162550716E0,-1.339547336E-2,7.361650467E-2,4.976367950E-2
7.172713069E0,-1.911975443E-2,9.745824337E-2,2.570848465E-1
7.182875423E0,-3.676775098E-2,9.547638893E-2,1.699810028E-1
7.193037776E0,-5.456329882E-2,1.048130989E-1,-2.890872955E-2
7.203200130E0,-5.419878662E-2,1.042841673E-1,-1.154642105E-1
7.213362483E0,-2.207525074E-2,7.087600231E-2,-4.438018799E-2
7.223524837E0,1.029178500E-3,1.793968678E-2,4.909229279E-2
7.233717708E0,1.418700814E-2,-2.767181396E-2,7.238864899E-2
7.243880062E0,3.105849028E-4,-4.808837175E-2,4.085254669E-2
7.254042415E0,-5.556790531E-2,-3.647619486E-2,2.394390106E-2
7.264204769E0,-8.707419038E-2,4.747903347E-2,2.621746063E-2
7.274367122E0,-1.176011711E-1,9.676569700E-2,7.200241089E-3
7.284529476E0,-8.510774374E-2,1.311939359E-1,-6.763458252E-3
7.294691829E0,-3.421355784E-2,1.440620422E-1,2.447795868E-2
7.304854183E0,2.208650112E-3,1.334671974E-1,8.355426788E-2
7.315016536E0,4.230546951E-2,9.399849176E-2,1.414709091E-1
7.325178890E0,6.177327037E-2,3.730243444E-2,1.344432831E-1
7.335341243E0,6.646500528E-2,-1.477819681E-2,5.891323090E-2
7.345503597E0,5.398893356E-2,-2.634304762E-2,-1.057815552E-2
7.355665950E0,3.260400891E-2,-3.995978832E-2,-5.757522583E-2
7.365828304E0,-1.102396846E-2,-4.106897116E-2,-9.683418274E-2
7.375990657E0,-2.962300181E-2,-2.738213539E-2,-1.376228333E-1
7.386153011E0,-2.808299661E-2,4.932999611E-3,-7.381439209E-3
7.396315364E0,-5.508255959E-2,1.637345552E-2,1.248645782E-1
7.406477718E0,-3.557455540E-2,1.339733601E-2,-3.844165802E-2
7.416670589E0,-8.208751678E-4,3.412067890E-2,-2.009811401E-1
7.426832942E0,7.845833898E-3,3.515172005E-2,-1.052341461E-1
7.436995296E0,-7.912725210E-3,-4.867196083E-3,6.199550629E-2
7.447157650E0,-2.162449062E-2,-9.271144867E-3,8.209991455E-2
7.457320003E0,-4.512473941E-3,1.909571886E-2,-2.095413208E-2
7.467482357E0,-1.632153988E-3,8.065658808E-2,-4.404354095E-2
7.477644710E0,2.008405328E-2,1.181738377E-1,3.248882294E-2
7.487807064E0,2.674305439E-2,1.096747518E-1,7.684898376E-2
7.497969417E0,2.804891765E-2,6.439203024E-2,6.121253967E-2
7.508131771E0,1.284940541E-2,1.127111912E-2,2.450275421E-2
7.518294124E0,3.371432424E-3,-2.287846804E-2,-2.585411072E-2
7.528456478E0,-1.691818237E-2,-2.074146271E-2,-6.822586060E-2
7.538649349E0,-4.113918543E-2,2.239841223E-2,-5.532455444E-2
7.548811702E0,-5.808681250E-2,7.009923458E-2,2.357196808E-2
7.558974056E0,-6.858688593E-2,1.124835610E-1,7.498264313E-2
7.569136409E0,-6.575661898E-2,1.091955900E-1,4.985332489E-2
7.579298763E0,-4.262630641E-2,1.044290662E-1,-3.150653839E-2
7.589461116E0,-3.211735189E-2,8.761811256E-2,-6.620788574E-2
7.599623470E0,-5.964154005E-2,6.368434429E-2,-7.995605469E-3
7.609785823E0,-7.482846081E-2,4.562687874E-2,6.812858582E-2
7.619948177E0,-6.321950257E-2,3.868490458E-2,8.607482910E-2
7.630110530E0,-4.166452587E-2,3.476715088E-2,5.168056488E-2
7.640272884E0,-2.224548161E-2,2.473455667E-2,1.301383972E-2
7.650435237E0,8.849516511E-3,1.863902807E-2,-1.805782318E-2
7.660628108E0,2.284114063E-2,6.653070450E-4,-4.383563995E-2
7.670790462E0,1.784624159E-2,8.950531483E-3,-5.262279510E-2
7.680952816E0,8.324414492E-3,3.357440233E-2,-1.642608643E-2
7.691115169E0,-1.242896914E-2,6.691414118E-2,2.860736847E-2
7.701277523E0,-1.841507852E-2,7.723170519E-2,7.521724701E-2
7.711439876E0,-5.587160587E-3,7.205098867E-2,8.068275452E-2
7.721602230E0,4.154741764E-3,5.186891556E-2,3.157901764E-2
7.731764583E0,1.545330882E-2,4.415220022E-2,-4.254913330E-2
7.741926937E0,7.212162018E-3,4.033321142E-2,-7.756900787E-2
7.752089290E0,1.115709543E-3,3.839880228E-2,-6.457424164E-2
7.762251644E0,-1.929044724E-2,4.240822792E-2,2.678871155E-3
7.772413997E0,-1.112486422E-2,4.151517153E-2,5.933761597E-2
7.782576351E0,-1.243086159E-2,3.959763050E-2,5.099964142E-2
7.792738704E0,-2.709101140E-2,5.556219816E-2,9.768486023E-3
7.802931575E0,-3.559756279E-2,6.613814831E-2,-1.419734955E-2
7.813093929E0,-2.881959081E-2,5.294817686E-2,2.373695374E-2
7.823256282E0,-3.392183781E-2,4.207766056E-2,7.513809204E-2
7.833418636E0,-7.022196054E-2,4.236352444E-2,7.578945160E-2
7.843580989E0,-7.152532041E-2,5.441802740E-2,-8.901500702E-2
7.853743343E0,-2.658300102E-2,7.061755657E-2,-1.228733063E-1
7.863905696E0,2.958820760E-2,7.424944639E-2,1.867008209E-2
7.874068050E0,6.878392398E-2,5.155074596E-2,6.073951721E-2
7.884230403E0,2.277339995E-2,9.381473064E-3,5.013942719E-2
7.894392757E0,-2.443839610E-2,-2.757972479E-2,-2.184772491E-2
7.904555110E0,-4.680255055E-2,-6.382703781E-3,-1.894140244E-1
7.914717464E0,-3.072625399E-2,3.594648838E-2,-2.212724686E-1
7.924879817E0,-2.681861818E-2,8.003968000E-2,2.178859711E-2
7.935072689E0,-4.035429657E-2,9.741723537E-2,2.509021759E-1
7.945235042E0,-5.942165852E-2,9.105211496E-2,1.969900131E-1
7.955397396E0,-7.134458423E-2,1.049387455E-1,2.118015289E-2
7.965559749E0,-2.850827575E-2,9.579193592E-2,-9.944438934E-2
7.975722103E0,1.590788364E-3,6.057232618E-2,-1.091470718E-1
7.985884456E0,9.051725268E-3,1.797205210E-2,-4.536151886E-2
7.996046810E0,-5.135491490E-3,-4.069864750E-2,2.664756775E-2
8.006209163E0,-4.870760441E-2,-4.807144403E-2,5.252647400E-2
8.016371517E0,-6.337182224E-2,-4.113823175E-2,6.360149384E-2
8.026533870E0,-5.502147973E-2,2.005302906E-2,3.881740570E-2
8.036696224E0,-3.707115352E-2,4.328054190E-2,-1.633930206E-2
8.046858577E0,-2.735149860E-2,9.194827080E-2,-2.326965332E-2
8.057020931E0,-1.145213842E-2,1.213313341E-1,1.723194122E-2
8.067183284E0,-2.227403224E-2,1.104248166E-1,7.594394684E-2
8.077376155E0,-3.028796613E-2,9.485226870E-2,1.336297989E-1
8.087538509E0,-3.772711754E-2,5.487912893E-2,1.287841797E-1
8.097700862E0,-2.141468227E-2,2.391380072E-2,7.430458069E-2
8.107863216E0,-1.039738953E-2,9.638786316E-3,1.369857788E-2
8.118025569E0,9.365797043E-3,5.105912685E-3,3.203105927E-2
8.128187923E0,1.448272169E-2,7.440686226E-3,1.447868347E-2
8.138350276E0,3.415282071E-2,2.746522427E-3,-7.595729828E-2
8.148512630E0,2.317588031E-2,2.987354994E-2,-7.244110107E-2
8.158705501E0,-8.721306920E-3,3.642439842E-2,-3.363895416E-2
8.168867855E0,-6.563678384E-3,3.877699375E-2,-1.089448929E-1
8.179030208E0,5.278766155E-3,2.555793524E-2,-1.329984665E-1
8.189192562E0,1.688463986E-2,3.460717201E-2,2.065277100E-2
8.199354915E0,2.190604806E-3,2.398008108E-2,1.170663834E-1
8.209517269E0,-5.503401160E-3,2.414470911E-2,3.921890259E-2
8.219679622E0,-6.209060550E-3,5.055963993E-2,-1.009845734E-1
8.229841976E0,-3.453642130E-4,8.050143719E-2,-1.109313965E-1
8.240004329E0,1.160553098E-2,1.044585705E-1,-2.542495728E-3
8.250166683E0,5.829975009E-3,9.044599533E-2,1.087131500E-1
8.260329036E0,2.212941647E-3,6.344538927E-2,1.115407944E-1
8.270491390E0,-1.502503455E-2,1.648950577E-2,5.045700073E-2
8.280653743E0,-3.624479473E-2,-1.151084900E-2,-1.196479797E-2
8.290846614E0,-4.279038310E-2,-5.887389183E-3,-2.611160278E-2
8.301008968E0,-4.014819860E-2,1.645857096E-2,-1.870727539E-2
8.311171321E0,-4.265041649E-2,2.195453644E-2,2.790451050E-3
8.321333675E0,-3.783252835E-2,5.076855421E-2,1.678943634E-2
8.331496028E0,-2.574169636E-2,5.983269215E-2,6.851196289E-3
8.341658382E0,-1.599840820E-2,5.206084251E-2,-1.465034485E-2
8.351820735E0,-1.100911200E-2,4.456287622E-2,-3.114509583E-2
8.361983089E0,-2.492988110E-2,4.958063364E-2,-1.416301727E-2
8.372145442E0,-1.019868255E-2,6.659716368E-2,7.260322571E-3
8.382307796E0,-9.830847383E-3,5.959880352E-2,9.410858154E-3
8.392470150E0,-1.871155202E-2,6.199598312E-2,2.336120605E-2
8.402632503E0,-2.032579482E-2,3.119629622E-2,8.693695068E-3
8.412794857E0,-3.155072033E-2,2.693283558E-2,-2.232170105E-2
8.422957210E0,-2.397499979E-2,6.271123886E-3,-1.494312286E-2
8.433119564E0,-1.684699953E-2,1.907205582E-2,-7.770538330E-3
8.443281917E0,-5.711972713E-3,2.926009893E-2,-5.417823792E-3
8.453444271E0,-1.383088529E-2,5.126416683E-2,-1.251411438E-2
8.463606624E0,-5.233138800E-3,7.547181845E-2,-1.007843018E-2
8.473799495E0,-1.072195172E-2,7.599246502E-2,1.602554321E-2
8.483961849E0,-8.732199669E-3,6.022202969E-2,1.334762573E-2
8.494124202E0,-1.583045721E-2,4.283595085E-2,-1.094818115E-3
8.504286556E0,-2.514652908E-2,3.574705124E-2,1.353263855E-3
8.514448909E0,-1.817756891E-2,3.627395630E-2,8.493423462E-3
8.524611263E0,-2.366639674E-2,3.686243296E-2,-1.062393188E-3
8.534773616E0,-7.977098227E-3,3.973031044E-2,-3.175735474E-2
8.544935970E0,5.097001791E-3,5.199766159E-2,-4.766845703E-2
8.555098323E0,1.335304976E-2,7.129347324E-2,-1.859664917E-3
8.565260677E0,-4.366204143E-3,5.665761232E-2,6.202411652E-2
8.575423030E0,-3.322698176E-2,4.583889246E-2,7.503223419E-2
8.585585384E0,-4.455100000E-2,3.164201975E-2,9.801864624E-3
8.595747737E0,-5.995960534E-2,2.438366413E-2,-3.778076172E-2
8.605940608E0,-4.196560383E-2,2.247518301E-2,-1.825141907E-2
8.616102962E0,-3.448574245E-2,4.192537069E-2,7.657432556E-2
8.626265316E0,-6.144906580E-2,4.140108824E-2,1.316404343E-1
8.636427669E0,-2.507174015E-2,5.660194159E-2,-4.824924469E-2
8.646590023E0,3.236263990E-2,4.922842979E-2,-1.726713181E-1
8.656752376E0,6.715579331E-2,3.746092319E-2,-1.010360718E-1
8.666914730E0,3.188087046E-2,2.942347527E-2,-1.881217957E-2
8.677077083E0,-4.074099660E-2,1.170301437E-2,7.856941223E-2
8.687239437E0,-7.287646830E-2,1.179099083E-2,8.417510986E-2
8.697401790E0,-5.068670213E-2,4.408687353E-2,-9.708976746E-2
8.707564144E0,-4.660621285E-3,7.698595524E-2,-1.968393326E-1
8.717757015E0,2.692683041E-2,1.045867205E-1,-2.525711060E-2
8.727919368E0,-6.265699863E-3,9.232956171E-2,1.881170273E-1
8.738081722E0,-4.934868217E-2,7.436883450E-2,1.991300583E-1
8.748244075E0,-8.477415144E-2,6.250053644E-2,5.635643005E-2
8.758406429E0,-6.523185968E-2,6.539756060E-2,-7.684421539E-2
8.768568782E0,-2.772349119E-2,6.080847979E-2,-1.366729736E-1
8.778731136E0,8.068114519E-3,4.418361187E-2,-1.008663177E-1
8.788893489E0,2.620388567E-2,-2.004325390E-3,-1.128292084E-2
8.799055843E0,7.263213396E-3,-3.645193577E-2,5.543804169E-2
8.809218196E0,-4.225394130E-2,-4.383832216E-2,8.074665070E-2
8.819411067E0,-7.948054373E-2,-5.925178528E-3,4.878616333E-2
8.829573421E0,-7.293510437E-2,3.679251671E-2,7.696151733E-4
8.839735775E0,-5.086393654E-2,7.825809717E-2,-2.993202209E-2
8.849898128E0,-1.883009076E-2,1.123097539E-1,-1.519775391E-2
8.860060482E0,6.817623973E-3,1.204913855E-1,2.763557434E-2
8.870222835E0,2.715475857E-2,9.345209599E-2,4.849624634E-2
8.880385189E0,2.153332531E-2,6.688404083E-2,4.769897461E-2
8.890547542E0,1.204895973E-2,3.589802980E-2,2.804279327E-2
8.900709896E0,7.925301790E-3,1.213544607E-2,4.041671753E-3
8.910872249E0,-1.268564165E-2,6.175041199E-5,6.296157837E-3
8.921034603E0,-1.714040339E-2,2.514988184E-2,-3.420829773E-3
8.931196956E0,-5.568325520E-3,3.700667620E-2,-3.654670715E-2
8.941359310E0,-8.778050542E-3,4.802286625E-2,4.191017151E-2
8.951552181E0,-1.391965151E-2,2.665203810E-2,7.377338409E-2
8.961714534E0,3.559231758E-3,1.403999329E-2,-7.454204559E-2
8.971876888E0,3.302231431E-3,1.416224241E-2,-1.940145493E-1
8.982039241E0,-2.474237978E-2,3.278326988E-2,-8.430957794E-2
8.992201595E0,-6.735444069E-2,4.011213779E-2,9.427070618E-2
9.002363948E0,-6.544467807E-2,5.812460184E-2,1.514387131E-1
9.012526302E0,-4.065142572E-2,5.992442369E-2,1.012487411E-1
9.022688655E0,2.972036600E-4,8.210855722E-2,2.591323853E-2
9.032851009E0,1.930478215E-2,8.290684223E-2,-2.442073822E-2
9.043013362E0,1.174105704E-2,7.297623158E-2,-5.026435852E-2
9.053175716E0,-3.022193909E-3,4.797464609E-2,-5.436706543E-2
9.063338069E0,-2.707128227E-2,2.204895020E-2,-4.648780823E-2
9.073500423E0,-5.312509835E-2,-7.474780083E-3,-1.978397369E-2
9.083662776E0,-6.223605573E-2,-1.760649681E-2,6.493568420E-3
9.093825130E0,-3.817373514E-2,4.588782787E-3,6.190299988E-3
9.104018001E0,-3.359004855E-2,2.988898754E-2,1.129150391E-3
9.114180355E0,-2.170470357E-2,3.927201033E-2,7.892608643E-3
9.124342708E0,-2.583667636E-3,6.154096127E-2,1.917362213E-2
9.134505062E0,-9.486943483E-3,5.169439316E-2,2.072525024E-2
9.144667415E0,-6.713181734E-3,5.767470598E-2,1.754474640E-2
9.154829769E0,-8.666187525E-3,5.814772844E-2,2.381992340E-2
9.164992122E0,-1.307392120E-2,4.623794556E-2,2.998065948E-2
9.175154476E0,-2.213041484E-2,6.256014109E-2,7.641792297E-3
9.185316829E0,-1.437078416E-2,5.960315466E-2,-7.222175598E-3
9.195479183E0,-1.636728644E-3,4.262238741E-2,-1.707935333E-2
9.205641536E0,-7.749915123E-3,3.803396225E-2,-1.965236664E-2
9.215803890E0,-6.834760308E-3,2.204608917E-2,-2.218055725E-2
9.225996761E0,-2.744145691E-2,-6.373524666E-4,-3.886604309E-2
9.236159114E0,-2.912302315E-2,3.251671791E-3,-4.338645935E-2
9.246321468E0,-2.154527605E-2,9.311497211E-3,-1.469135284E-2
9.256483821E0,-9.385228157E-3,1.953268051E-2,1.105403900E-2
9.266646175E0,-2.105683088E-3,3.348648548E-2,3.639507294E-2
9.276808528E0,-8.983686566E-3,4.610407352E-2,6.600475311E-2
9.286970882E0,-1.783202589E-2,6.447237730E-2,8.553791046E-2
9.297133235E0,-1.689189672E-2,8.167925477E-2,4.561519623E-2
9.307295589E0,-2.761819959E-2,9.387445450E-2,-3.612709045E-2
9.317457942E0,-2.419731021E-2,9.278702736E-2,-1.140747070E-1
9.327620296E0,-9.618565440E-3,7.224774361E-2,-1.125698090E-1
9.337782650E0,-2.752602100E-3,5.638238788E-2,-5.898380280E-2
9.347945003E0,-8.589178324E-4,3.730240464E-2,5.558013916E-3
9.358107357E0,-5.799338222E-3,3.069368005E-2,4.059505463E-2
9.368300228E0,-1.043562591E-2,3.080612421E-2,3.722572327E-2
9.378462581E0,-1.505750418E-2,3.516405821E-2,5.519866943E-3
9.388624935E0,-2.207955718E-2,5.372905731E-2,-3.741836548E-2
9.398787288E0,-2.205005288E-2,5.135631561E-2,-4.890346527E-2
9.408949642E0,-3.858709335E-2,6.376641989E-2,-2.468395233E-2
9.419111995E0,-4.520067573E-2,7.389089465E-2,6.200790405E-3
9.429274349E0,-3.911882639E-2,8.387219906E-2,4.844570160E-2
9.439436702E0,-8.835241199E-3,7.166448236E-2,1.017913818E-1
9.449599056E0,-2.196785808E-2,6.327912211E-2,1.660642624E-1
9.459761409E0,-4.025317729E-2,6.560641527E-2,1.533994675E-1
9.469923763E0,-1.878808439E-2,6.711867452E-2,-2.225017548E-2
9.480086116E0,1.183235645E-2,6.032469869E-2,-2.325344086E-1
9.490248470E0,5.643062294E-2,4.995933175E-2,-2.782983780E-1
9.500410823E0,3.863216937E-2,4.334297776E-2,-1.458654404E-1
9.510603694E0,-3.382387757E-2,2.989184856E-2,4.573917389E-2
9.520766048E0,-5.987687409E-2,3.807210922E-2,1.086006165E-1
9.530928401E0,-2.326364815E-2,5.010339618E-2,-1.623344421E-2
9.541090755E0,1.543684304E-2,6.451195478E-2,-1.056594849E-1
9.551253108E0,5.959421396E-4,6.577292085E-2,-3.506660461E-2
9.561415462E0,-3.936544061E-2,8.003985882E-2,1.216564178E-1
9.571577816E0,-7.261742651E-2,8.676615357E-2,1.976528168E-1
9.581740169E0,-7.192336023E-2,8.726519346E-2,1.469335556E-1
9.591902523E0,-2.826324105E-2,8.882933855E-2,1.443195343E-2
9.602064876E0,7.010981441E-3,5.695489049E-2,-1.253356934E-1
9.612227230E0,1.504601538E-2,3.111630678E-2,-1.894311905E-1
9.622389583E0,4.822373390E-3,-1.196500659E-2,-1.317739487E-1
9.632551937E0,-2.404144406E-2,-3.700128198E-2,-3.485870361E-2
9.642714290E0,-5.728609860E-2,-4.338833690E-2,6.748104095E-2
9.652907161E0,-7.490651309E-2,-1.813817024E-2,1.230936050E-1
9.663069515E0,-6.210097671E-2,3.774279356E-2,8.782958984E-2
9.673231868E0,-3.394469619E-2,8.410459757E-2,2.718162537E-2
9.683394222E0,5.013525486E-3,1.150761843E-1,-2.769565582E-2
9.693556575E0,1.507809758E-2,1.127416492E-1,-5.089473724E-2
9.703718929E0,2.079896629E-2,9.942293167E-2,-4.064655304E-2
9.713881282E0,1.754729450E-2,4.646077752E-2,-2.580928802E-2
9.724043636E0,9.797349572E-3,6.008833647E-3,1.248073578E-2
9.734205989E0,-2.379089594E-3,-1.580497622E-2,6.187057495E-2
9.744368343E0,-1.386475563E-2,-2.950850129E-2,1.198434830E-1
9.754530696E0,-7.559701800E-3,-9.997576475E-3,1.366043091E-1
9.764693050E0,-3.393188119E-3,-3.311336040E-3,1.317281723E-1
9.774855403E0,-2.617688477E-2,4.770398140E-3,1.268911362E-1
9.785048275E0,-2.813389897E-2,3.076544404E-2,6.277751923E-2
9.795210628E0,7.856935263E-4,2.819576859E-2,-1.113290787E-1
9.805372982E0,2.256652713E-2,4.951635003E-2,-2.231750488E-1
9.815535335E0,5.950987339E-3,5.164761841E-2,-1.676216125E-1
9.825697689E0,-4.923430085E-2,8.283713460E-2,-5.397510529E-2
9.835860042E0,-6.197312474E-2,9.502443671E-2,-1.310539246E-2
9.846022396E0,-4.433541000E-2,1.164295971E-1,-2.251148224E-2
9.856184749E0,-1.769667864E-2,1.088482887E-1,-2.936649323E-2
9.866347103E0,8.251503110E-3,8.667966723E-2,-2.419948578E-2
9.876509456E0,1.707339287E-2,7.329067588E-2,-2.079010010E-4
9.886671810E0,4.329204559E-3,4.426261783E-2,2.341270447E-2
9.896834163E0,-2.005445957E-2,3.241430223E-2,3.480339050E-2
9.906996517E0,-4.153044522E-2,2.522958815E-2,3.887462616E-2
9.917189388E0,-3.435015678E-2,1.992973685E-2,2.158451080E-2
9.927351741E0,-3.230197728E-2,2.149462700E-2,-2.608299255E-2
9.937514095E0,-2.100799978E-2,3.230951726E-2,-4.686927795E-2
9.947676448E0,-2.637670934E-2,4.300439358E-2,-1.540946960E-2
9.957838802E0,-3.383760154E-2,6.270349026E-2,1.319694519E-2
9.968001155E0,-3.829789162E-2,6.996212900E-2,4.601478577E-2
9.978163509E0,-1.856426895E-2,7.621996850E-2,6.880092621E-2
9.988325862E0,-1.045379043E-2,7.217592001E-2,5.340385437E-2
9.998518733E0,-1.234591007E-2,7.276453078E-2,9.913444519E-3
1.000868109E1,-7.811799645E-3,6.911553442E-2,-5.889797211E-2
1.001884344E1,-2.019198239E-2,5.950088799E-2,-1.099357605E-1
1.002900579E1,-3.202188015E-2,4.416345805E-2,-9.626102448E-2
1.003916815E1,-3.172762692E-2,2.995270491E-2,-3.789615631E-2
1.004933050E1,-2.667470276E-2,2.787851542E-2,2.180290222E-2
1.005949286E1,-7.649421692E-3,1.778347790E-2,4.498958588E-2
1.006965521E1,-8.102387190E-3,1.126396656E-2,2.756595612E-2
1.007981756E1,-4.216015339E-3,1.547747105E-2,1.050758362E-2
1.008997992E1,-2.432182431E-2,1.645739377E-2,3.231048584E-3
1.010014227E1,-2.055756748E-2,5.013563856E-2,5.415916443E-3
1.011030462E1,-2.380822599E-2,6.153041124E-2,2.652263641E-2
1.012046698E1,-7.800817490E-3,7.483354211E-2,2.839946747E-2
1.013062933E1,-1.320511103E-3,8.547927439E-2,1.126670837E-2
1.014082220E1,-1.606674492E-2,7.721523941E-2,6.351470947E-3
1.015098455E1,-1.854930818E-2,5.984861404E-2,1.097106934E-2
1.016114691E1,-1.130968332E-2,5.737669393E-2,8.419036865E-3
1.017130926E1,-1.815788448E-2,5.280400068E-2,1.530265808E-2
1.018147161E1,-3.188164532E-2,5.115418509E-2,1.024055481E-2
1.019163397E1,-2.881778777E-2,4.983298108E-2,-1.833724976E-2
1.020179632E1,-2.607597411E-2,4.941076040E-2,-5.347251892E-2
1.021195868E1,-1.858811080E-2,5.004671216E-2,-6.907653809E-2
1.022212103E1,-1.340563595E-2,4.931775481E-2,-6.077575684E-2
1.023228338E1,-1.075625420E-2,3.975927830E-2,-2.193927765E-2
1.024244574E1,-2.002133429E-2,2.824221365E-2,2.335739136E-2
1.025260809E1,-2.684065700E-2,3.071030974E-2,7.740402222E-2
1.026277044E1,-4.060727358E-2,4.156176746E-2,9.972858429E-2
1.027293280E1,-4.223862290E-2,5.365743861E-2,7.200908661E-2
1.028312567E1,-3.436805308E-2,6.724420190E-2,1.410102844E-2
1.029328802E1,-1.519984007E-2,6.398126483E-2,4.475593567E-3
1.030345037E1,-3.514584899E-2,7.984044403E-2,3.040790558E-2
1.031361273E1,-2.930948138E-2,9.329590946E-2,1.556491852E-2
1.032377508E1,5.486071110E-3,8.351936191E-2,-1.148157120E-1
1.033393744E1,5.268010497E-2,5.885834992E-2,-1.766138077E-1
1.034409979E1,6.605346501E-2,2.483607829E-2,-7.901191711E-2
1.035426214E1,7.347896695E-3,-1.010475308E-2,2.868175507E-2
1.036442450E1,-5.335010588E-2,-2.369934320E-2,8.000564575E-2
1.037458685E1,-4.195137322E-2,6.844878197E-3,-3.023719788E-2
1.038474920E1,-2.348187566E-2,3.937539458E-2,-1.360139847E-1
1.039491156E1,-1.312375069E-2,7.283004373E-2,-9.113502502E-2
1.040510443E1,-4.285690188E-2,8.576899767E-2,3.320980072E-2
1.041526678E1,-8.304205537E-2,1.273212284E-1,1.151971817E-1
1.042542913E1,-6.232866645E-2,1.249747425E-1,1.485557556E-1
1.043559149E1,-3.005824983E-2,9.999249876E-2,1.294460297E-1
1.044575384E1,-1.825302839E-3,5.750461668E-2,6.344699860E-2
1.045591619E1,1.639136672E-2,2.174411714E-2,-1.323032379E-2
1.046607855E1,8.186563849E-3,-1.389009506E-2,-4.849529266E-2
1.047624090E1,-2.275046706E-2,-4.420235753E-2,-5.007076263E-2
1.048640326E1,-4.724869132E-2,-4.066959769E-2,-6.339931488E-2
1.049656561E1,-6.836600602E-2,-1.520299911E-2,-6.702899933E-2
1.050672796E1,-7.517921925E-2,3.892517835E-2,-6.110858917E-2
1.051689032E1,-7.042421401E-2,7.653374225E-2,-3.167724609E-2
1.052705267E1,-3.995613754E-2,1.021718979E-1,2.561664581E-2
1.053724554E1,6.625309587E-3,1.297476441E-1,6.070709229E-2
1.054740789E1,2.166117728E-2,1.163946167E-1,6.437015533E-2
1.055757025E1,2.932275832E-2,8.884931356E-2,4.439353943E-2
1.056773260E1,1.997058094E-2,4.491418600E-2,2.236557007E-2
1.057789495E1,8.749887347E-3,1.599372923E-2,1.490211487E-2
1.058805731E1,2.846986055E-3,1.840621233E-3,-1.133346558E-2
1.059821966E1,2.024188638E-3,1.156760752E-2,-3.473091125E-2
1.060838202E1,-6.140783429E-3,2.345429361E-2,-5.644798279E-3
1.061854437E1,-5.015489459E-2,3.976128995E-2,1.009178162E-1
1.062870672E1,-5.308099091E-2,4.037780315E-2,1.321611404E-1
1.063886908E1,-1.017777622E-2,4.452546686E-2,-4.849433899E-3
1.064903143E1,1.378466189E-2,3.930730373E-2,-1.488189697E-1
1.065919378E1,-1.061347127E-2,3.837999701E-2,-1.438217163E-1
1.066935614E1,-5.980208516E-2,2.516002208E-2,-6.813907623E-2
1.067951849E1,-5.470466614E-2,3.929366916E-2,-8.945465088E-4
1.068971136E1,-3.536704183E-2,4.144464433E-2,4.868412018E-2
1.069987371E1,-1.838266850E-2,5.717135966E-2,7.854366302E-2
1.071003607E1,7.718682289E-3,6.233857572E-2,7.955837250E-2
1.072019842E1,2.363011241E-2,4.782424122E-2,6.166267395E-2
1.073036078E1,2.688205242E-2,4.008317739E-2,5.587863922E-2
1.074052313E1,3.498151898E-3,3.937724978E-2,3.833484650E-2
1.075068548E1,-1.243172586E-2,4.083006084E-2,-4.952430725E-3
1.076084784E1,-2.793784440E-2,3.031202406E-2,-6.401348114E-2
1.077101019E1,-3.791418672E-2,3.224407881E-2,-9.602260590E-2
1.078117254E1,-4.277506471E-2,3.943438083E-2,-5.178165436E-2
1.079136541E1,-4.973645508E-2,7.534247637E-2,-2.019786835E-2
1.080152777E1,-4.968833923E-2,9.160540998E-2,-3.355026245E-3
1.081169012E1,-2.120681107E-2,7.915169746E-2,-3.385543823E-3
1.082185247E1,-4.936456680E-3,6.684220582E-2,-3.333091736E-3
1.083201483E1,-5.202755332E-3,5.220362544E-2,1.088333130E-2
1.084217718E1,-2.189338207E-2,5.401367694E-2,5.943298340E-3
1.085233953E1,-3.112636507E-2,3.178017586E-2,8.255004883E-3
1.086250189E1,-4.501397908E-2,2.151377499E-2,1.280879974E-2
1.087266424E1,-3.729876876E-2,2.752261609E-2,-1.110267639E-2
1.088282660E1,-2.505968511E-2,3.106722981E-2,-4.639720917E-2
1.089298895E1,-8.529826999E-3,3.009943664E-2,-5.034446716E-2
1.090315130E1,-1.119287312E-2,3.912300617E-2,-2.348232269E-2
1.091331366E1,-1.139736176E-2,3.630149364E-2,1.231575012E-2
1.092347601E1,-2.118550241E-2,3.353384137E-2,3.809356689E-2
1.093366888E1,-1.920178533E-2,3.778427839E-2,5.160236359E-2
1.094383123E1,-5.501747131E-3,3.679783642E-2,2.940368652E-2
1.095399359E1,-8.767262101E-3,5.225122720E-2,-8.946418762E-3
1.096415594E1,-1.258657873E-2,4.187835008E-2,-5.609893799E-2
1.097431829E1,-2.174624801E-2,3.721961379E-2,-5.281734467E-2
1.098448065E1,-1.953488588E-2,3.588803113E-2,-2.288818359E-3
1.099464300E1,-8.087173104E-3,2.586870641E-2,7.806205750E-2
1.100480536E1,7.251799107E-4,2.404855937E-2,1.262006760E-1
1.101496771E1,1.127190888E-2,1.398555934E-2,2.445697784E-2
1.102513006E1,3.674787283E-2,3.738498688E-2,-2.055444717E-1
1.103529242E1,2.918797731E-2,7.190532237E-2,-4.127273560E-1
1.104545477E1,3.028233349E-2,8.773455769E-2,-4.816207886E-1
1.105561712E1,5.902647972E-3,9.407527745E-2,-3.743820190E-1
1.106577948E1,-1.221592724E-2,8.622780442E-2,-1.507568359E-1
1.107597235E1,-2.479141951E-2,5.353788286E-2,8.805465698E-2
1.108613470E1,-4.390767217E-2,2.305547148E-2,2.401628494E-1
1.109629705E1,-5.999435484E-2,-1.436783746E-2,2.974872589E-1
1.110645941E1,-5.083084106E-2,-3.992377222E-2,3.019361496E-1
1.111662176E1,-5.964203179E-2,-3.132865578E-2,3.016147614E-1
1.112678411E1,-7.228182256E-2,3.117202595E-2,2.349634171E-1
1.113694647E1,-4.351373017E-2,8.272952586E-2,7.020187378E-2
1.114710882E1,1.040142775E-2,1.171904579E-1,-9.405517578E-2
1.115727118E1,5.850213766E-2,1.277101636E-1,-1.419172287E-1
1.116743353E1,3.065367043E-2,9.458539635E-2,-8.740806580E-2
1.117759588E1,-4.455339909E-2,5.805581436E-2,1.103496552E-2
1.118778875E1,-7.893009484E-2,2.905983850E-2,-1.996803284E-2
1.119795111E1,-5.215986073E-2,4.919646308E-3,-1.520528793E-1
1.120811346E1,-1.568970084E-2,7.657590322E-3,-2.298097610E-1
1.121827581E1,-8.766323328E-3,3.686598688E-2,-1.525354385E-1
1.122843817E1,-2.399824560E-2,6.039543822E-2,5.960464478E-3
1.123860052E1,-4.205748439E-2,9.300884604E-2,1.215839386E-1
1.124876287E1,-2.886228263E-2,9.954778105E-2,1.808919907E-1
1.125892523E1,-1.485317945E-3,8.422078192E-2,1.754751205E-1
1.126908758E1,-6.800159812E-3,4.478808492E-2,1.157712936E-1
1.127924994E1,9.267359972E-3,2.054242417E-2,5.475521088E-2
1.128941229E1,-3.900527954E-4,-6.866514683E-3,4.220008850E-3
1.129957464E1,-1.611562073E-2,-2.012220211E-2,-2.924919128E-3
1.130976751E1,-4.253250360E-2,-1.887756027E-2,9.028434753E-3
1.131992987E1,-6.568817794E-2,-5.562582985E-3,3.018093109E-2
1.133009222E1,-5.747127533E-2,5.260563642E-2,1.784324646E-2
1.134025457E1,-3.045305610E-2,7.480348647E-2,1.283359528E-2
1.135041693E1,-2.073763311E-2,9.213701636E-2,-6.287574768E-3
1.136057928E1,-9.260043502E-3,1.024835482E-1,-2.268695831E-2
1.137074163E1,1.535445452E-3,9.421025962E-2,-1.757621765E-2
1.138090399E1,2.303048968E-3,7.431285083E-2,3.978729248E-3
1.139106634E1,-1.106861234E-2,4.296521097E-2,2.529525757E-2
1.140122869E1,-3.330129385E-2,1.406074595E-2,5.319404602E-2
1.141139105E1,-3.095369041E-2,1.568314806E-2,3.105831146E-2
1.142155340E1,-9.424865246E-3,2.375949919E-2,1.404762268E-2
1.143171576E1,-2.417241037E-2,2.651697770E-2,7.069873810E-2
1.144190863E1,-5.345895886E-2,4.264532030E-2,1.356172562E-1
1.145207098E1,-2.024325728E-2,4.572343454E-2,1.503086090E-2
1.146223333E1,1.594200730E-2,3.944351524E-2,-1.411962509E-1
1.147239569E1,2.358938754E-2,3.258546814E-2,-1.670579910E-1
1.148255804E1,-1.734662056E-2,3.755339980E-2,-1.027584076E-1
1.149272039E1,-4.264651239E-2,3.913339227E-2,-4.429626465E-2
1.150288275E1,-3.976333141E-2,5.306250602E-2,1.341819763E-3
1.151304510E1,-3.215473890E-2,6.168343127E-2,6.515312195E-2
1.152320745E1,-1.965212822E-2,7.400854677E-2,1.089429855E-1
1.153336981E1,4.077538848E-3,7.305283844E-2,1.307525635E-1
1.154353216E1,1.729069650E-2,6.359415501E-2,1.261291504E-1
1.155369452E1,1.571170986E-2,5.554233119E-2,1.216125488E-1
1.156385687E1,4.432648420E-3,3.488589078E-2,5.802059174E-2
1.157401922E1,-1.338560879E-2,3.588637710E-2,-4.230403900E-2
1.158418158E1,-3.760521114E-2,4.261424765E-2,-1.195297241E-1
1.159437445E1,-5.172397196E-2,4.608419538E-2,-1.127233505E-1
1.160453680E1,-5.166150630E-2,5.304176360E-2,-5.176544189E-2
1.161469915E1,-4.695498943E-2,5.575456470E-2,1.052951813E-2
1.162486151E1,-2.341160178E-2,6.526938826E-2,3.631401062E-2
1.163502386E1,-6.945073605E-3,6.214134395E-2,5.694675446E-2
1.164518621E1,-4.577636719E-3,5.620395392E-2,4.883480072E-2
1.165534857E1,-6.650984287E-3,5.257686973E-2,1.020812988E-2
1.166551092E1,-2.949167788E-2,5.167414993E-2,-3.015995026E-2
1.167567328E1,-4.222539067E-2,3.938571364E-2,-4.142570496E-2
1.168583563E1,-5.474342406E-2,6.117250770E-2,-4.776859283E-2
1.169599798E1,-5.061474442E-2,5.239274353E-2,-1.623058319E-2
1.170616034E1,-3.948698938E-2,6.042393297E-2,3.129959106E-2
1.171632269E1,-2.361266315E-2,5.387672037E-2,4.254341125E-2
1.172648504E1,-1.028648019E-2,4.706152901E-2,3.003597260E-2
1.173667791E1,-4.121854901E-3,4.262726009E-2,5.941390991E-3
1.174684027E1,-1.472979784E-2,2.643840574E-2,-2.017211914E-2
1.175700262E1,-1.598505676E-2,3.458823264E-2,-2.682876587E-2
1.176716497E1,-2.437426150E-2,3.817078471E-2,-5.062103271E-3
1.177732733E1,-1.840910316E-2,5.374499783E-2,-2.317428589E-4
1.178748968E1,-1.249545813E-2,5.489899591E-2,-7.298469543E-3
1.179765203E1,5.950182676E-4,6.316177547E-2,-2.374935150E-2
1.180781439E1,-5.231946707E-3,6.689039618E-2,-4.463481903E-2
1.181797674E1,-1.467853785E-3,5.195180327E-2,-6.273651123E-2
1.182813910E1,-4.853814840E-3,4.004052281E-2,-5.693054199E-2
1.183830145E1,-1.063407958E-2,3.091199137E-2,-2.984333038E-2
1.184849432E1,-2.597069740E-2,1.433067210E-2,5.112552643E-2
1.185865667E1,-3.424920142E-2,2.499830164E-2,1.353979111E-1
1.186881903E1,-5.174717307E-2,2.633814141E-2,1.756458282E-1
1.187898138E1,-4.531906545E-2,3.487074748E-2,1.608695984E-1
1.188914373E1,-2.707554400E-2,3.004768118E-2,1.131820679E-1
1.189930609E1,-2.616278827E-2,3.428525478E-2,5.934429169E-2
1.190946844E1,-5.461513996E-2,3.899141401E-2,3.955841064E-3
1.191963079E1,-3.148873150E-2,6.144687533E-2,-1.003112793E-1
1.192979315E1,2.162733674E-2,5.982181057E-2,-2.878236771E-1
1.193995550E1,5.356560647E-2,6.420875341E-2,-3.774662018E-1
1.195011786E1,6.934621930E-2,4.677564651E-2,-2.812166214E-1
1.196031073E1,1.373808086E-2,1.793962438E-3,-7.550525665E-2
1.197047308E1,-6.774045527E-2,-4.187528044E-2,1.218709946E-1
1.198063543E1,-8.439104259E-2,-2.271537483E-2,1.029939651E-1
1.199079779E1,-3.698840737E-2,2.036164887E-2,-4.532241821E-2
1.200096014E1,-3.832727671E-4,5.282675475E-2,-9.875297546E-2
1.201112249E1,-3.209389746E-2,8.299022913E-2,3.531551361E-2
1.202128485E1,-6.667512655E-2,1.171669662E-1,1.741285324E-1
1.203144720E1,-5.722571909E-2,1.040031463E-1,2.040710449E-1
1.204160955E1,-3.397043049E-2,8.846624196E-2,1.320352554E-1
1.205177191E1,-1.250043511E-2,4.533259943E-2,2.343177795E-2
1.206193426E1,-1.519396901E-3,-2.526842058E-3,-7.620429993E-2
1.207209661E1,-5.624562502E-3,-3.503429145E-2,-1.103782654E-1
1.208228948E1,-1.135934889E-2,-5.917029083E-2,-7.304477692E-2
1.209245184E1,-2.044367790E-2,-6.105782464E-2,-2.690887451E-2
1.210261419E1,-5.216063559E-2,-1.812199131E-2,-1.229476929E-2
1.211277655E1,-8.559231460E-2,4.278061911E-2,-1.449203491E-2
1.212293890E1,-6.212179363E-2,8.595663309E-2,-3.549289703E-2
1.213310125E1,-2.051566541E-2,1.097533181E-1,-3.011035919E-2
1.214326361E1,1.080647111E-2,1.073884815E-1,-1.542091370E-2
1.215342596E1,3.215152025E-2,9.100272506E-2,1.086997986E-2
1.216358831E1,4.615971446E-2,5.585763603E-2,3.434944153E-2
1.217375067E1,3.398579359E-2,1.122074574E-2,4.795455933E-2
1.218391302E1,7.866963744E-3,-9.828947484E-3,4.245567322E-2
1.219407537E1,-1.285168529E-2,-1.480247825E-2,3.229999542E-2
1.220423773E1,-1.406979561E-2,5.639545619E-3,-8.360862732E-3
1.221440008E1,-6.209045649E-3,4.914209619E-2,-3.645038605E-2
1.222459295E1,-4.383912683E-2,4.468406737E-2,7.297897339E-2
1.223475531E1,-5.022463202E-2,5.395801738E-2,9.044551849E-2
1.224491766E1,1.048499346E-2,5.295228586E-2,-6.488323212E-2
1.225508001E1,2.598159015E-2,3.597218171E-2,-1.889390945E-1
1.226524237E1,3.176420927E-3,2.846728265E-2,-1.548776627E-1
1.227540472E1,-5.362765491E-2,2.540821582E-2,-4.115676880E-2
1.228556707E1,-6.052792072E-2,3.967055678E-2,3.514194489E-2
1.229572943E1,-3.887113929E-2,6.506575644E-2,8.183956146E-2
1.230589178E1,-2.705974877E-2,9.160957485E-2,1.135597229E-1
1.231605413E1,-8.703082800E-3,8.355119824E-2,1.021900177E-1
1.232621649E1,1.822766662E-2,6.750929356E-2,8.629608154E-2
1.233637884E1,2.084895968E-2,4.631673172E-2,6.117439270E-2
1.234654119E1,4.411876202E-3,2.047529444E-2,1.989555359E-2
1.235670355E1,-2.073021233E-2,1.397275925E-2,-2.777767181E-2
1.236686590E1,-3.307549655E-2,1.273015887E-2,-4.852962494E-2
1.237702826E1,-4.251833260E-2,2.390935645E-2,-4.065227509E-2
1.238722113E1,-4.699540138E-2,4.915710539E-2,2.563476562E-3
1.239738348E1,-4.223524034E-2,5.022820085E-2,9.570121765E-3
1.240754583E1,-2.576343715E-2,5.805583671E-2,-1.425361633E-2
1.241770819E1,2.056941390E-3,5.636564642E-2,-4.948425293E-2
1.242787054E1,-6.117299199E-3,5.511889607E-2,-6.045150757E-2
1.243803289E1,-1.167675853E-2,4.945635051E-2,-4.053783417E-2
1.244819525E1,-2.395819128E-2,5.133498460E-2,-6.793022156E-3
1.245835760E1,-3.801384568E-2,3.861236945E-2,1.464080811E-2
1.246851995E1,-3.968697786E-2,3.479444981E-2,1.439666748E-2
1.247871282E1,-2.243831754E-2,1.858548447E-2,2.295494080E-3
1.248887518E1,-2.455782890E-2,4.289178178E-3,-2.522468567E-3
1.249903753E1,-1.279146969E-2,-5.755193532E-3,-9.589195251E-3
1.250919989E1,-1.104989648E-2,5.135610700E-3,-1.420593262E-2
1.251936224E1,-1.915422082E-2,1.538875047E-2,-3.053474426E-2
1.252952459E1,-8.617758751E-3,3.943692520E-2,-3.008842468E-2
1.253968695E1,-3.246262670E-3,4.423220456E-2,-2.719688416E-2
1.254984930E1,-2.632588148E-4,5.136490613E-2,-2.201461792E-2
1.256001165E1,-1.923084259E-3,5.116858333E-2,-1.224136353E-2
1.257017401E1,-5.923643708E-3,6.028129533E-2,-7.299423218E-3
1.258033636E1,-1.449276507E-2,5.002067611E-2,1.170444489E-2
1.259049871E1,-1.540012658E-2,5.626469851E-2,3.994846344E-2
1.260066107E1,-2.274872363E-2,4.554088041E-2,5.584430695E-2
1.261082342E1,-1.040922105E-2,3.934556246E-2,6.436252594E-2
1.262098578E1,-1.437975466E-2,5.915075541E-2,6.802272797E-2
1.263114813E1,-3.718304634E-2,5.034399033E-2,3.616333008E-2
1.264131048E1,-4.791964591E-2,5.853146315E-2,-1.407909393E-2
1.265150335E1,-3.008002043E-2,6.022565812E-2,-4.923152924E-2
1.266166571E1,-1.758337021E-2,4.878051579E-2,-4.124259949E-2
1.267182806E1,-3.671969473E-2,3.106415272E-2,2.796363831E-2
1.268199041E1,-5.162094533E-2,4.432126880E-2,4.630088806E-2
1.269215277E1,-1.629014313E-2,5.980213732E-2,-6.799125671E-2
1.270231512E1,3.700456023E-2,5.253006518E-2,-1.636772156E-1
1.271247747E1,7.677195966E-2,4.705882818E-2,-1.702289581E-1
1.272263983E1,3.433592618E-2,1.927742362E-2,-6.322765350E-2
1.273280218E1,-6.149575114E-2,-5.264125764E-3,8.196163177E-2
1.274296453E1,-7.190234959E-2,1.444574445E-2,8.506298065E-2
1.275312689E1,-2.301274240E-2,4.456748068E-2,-5.119228363E-2
1.276331976E1,2.767181396E-2,5.533178151E-2,-1.258592606E-1
1.277348211E1,8.018627763E-3,7.872650027E-2,-5.525588989E-3
1.278364447E1,-4.414112866E-2,9.740205109E-2,1.410036087E-1
1.279380682E1,-6.295622885E-2,9.362418205E-2,1.691970825E-1
1.280396917E1,-4.433888197E-2,9.312447160E-2,1.402854919E-1
1.281413153E1,-2.145352960E-2,8.158804476E-2,9.538364410E-2
1.282429388E1,-5.348935723E-3,4.533849657E-2,2.055931091E-2
1.283445623E1,5.726084113E-3,2.091260254E-2,-2.230548859E-2
1.284461859E1,7.841885090E-3,-1.019321382E-3,-2.895450592E-2
1.285478094E1,-1.724152267E-2,-1.734948158E-2,-9.475708008E-3
1.286494329E1,-4.814954102E-2,-2.039484680E-3,-2.182960510E-3
1.287510565E1,-7.618542016E-2,2.315288037E-2,-1.628875732E-2
1.288526800E1,-6.622993946E-2,6.068587303E-2,-1.358127594E-2
1.289543036E1,-3.759197891E-2,9.875952452E-2,8.888244629E-4
1.290559271E1,-1.642020047E-2,1.373549700E-1,1.748275757E-2
1.291578558E1,4.419982433E-3,1.385682672E-1,3.376483917E-2
1.292594793E1,8.197754622E-3,1.121188179E-1,3.794574738E-2
1.293611029E1,7.014632225E-3,7.957606018E-2,4.678153992E-2
1.294627264E1,9.971112013E-4,3.129337728E-2,4.837131500E-2
1.295643499E1,-9.455502033E-3,1.240565628E-2,4.989624023E-2
1.296659735E1,-1.028902829E-2,1.976198703E-2,4.431152344E-2
1.297675970E1,2.895519137E-3,4.559624940E-2,2.691745758E-2
1.298692205E1,1.192152500E-3,6.146945804E-2,3.136730194E-2
1.299708441E1,-3.172214329E-2,5.831907690E-2,1.301021576E-1
1.300724676E1,-3.791980445E-2,6.912995875E-2,8.988761902E-2
1.301740911E1,-2.572044730E-3,7.522629946E-2,-6.768608093E-2
1.302760198E1,9.481564164E-3,5.939603597E-2,-1.893377304E-1
1.303776434E1,-1.466712356E-2,5.165979266E-2,-1.742515564E-1
1.304792669E1,-5.185070634E-2,4.716428369E-2,-1.076335907E-1
1.305808905E1,-5.148343742E-2,4.249805957E-2,-5.628776550E-2
1.306825140E1,-3.678728640E-2,5.308373272E-2,3.641128540E-3
1.307841375E1,-7.882669568E-3,4.430713132E-2,8.628463745E-2
1.308857611E1,1.311849058E-2,5.563231185E-2,1.438560486E-1
1.309873846E1,1.902419329E-2,4.578604549E-2,1.602764130E-1
1.310890081E1,-6.200298667E-3,6.244599819E-2,1.409511566E-1
1.311906317E1,-3.335744143E-2,6.320826709E-2,7.944011688E-2
1.312922552E1,-3.791834414E-2,5.635770783E-2,-7.019042969E-3
1.313938787E1,-3.410713375E-2,4.081302136E-2,-8.961772919E-2
1.314958075E1,-2.253083885E-2,3.885703906E-2,-1.140356064E-1
1.315974310E1,-2.759218216E-2,2.672596648E-2,-5.058002472E-2
1.316990545E1,-3.806221485E-2,2.515635081E-2,1.406097412E-2
1.318006781E1,-3.749673069E-2,3.563756868E-2,1.146030426E-2
1.319023016E1,-2.582672238E-2,3.403380141E-2,-1.708507538E-2
1.320039251E1,-1.239129901E-2,2.784067020E-2,-3.805732727E-2
1.321055487E1,-2.298988402E-2,3.876013309E-2,-6.105041504E-2
1.322071722E1,-1.655355096E-2,4.059997946E-2,-7.649326324E-2
1.323087957E1,-9.884819388E-3,2.623047680E-2,-6.559562683E-2
1.324104193E1,-1.955696940E-2,2.424135804E-2,-2.413845062E-2
1.325120428E1,-2.427004278E-2,3.357165307E-2,2.127647400E-2
1.326139715E1,-1.713897288E-2,2.514165640E-2,4.463100433E-2
1.327155950E1,-1.499156654E-2,8.135423064E-3,6.999778748E-2
1.328172186E1,-1.292566955E-2,1.807549596E-2,8.066654205E-2
1.329188421E1,-1.111139357E-2,1.899808645E-2,5.811119080E-2
1.330204657E1,-1.164172590E-2,1.889182627E-2,7.602691650E-3
1.331220892E1,-1.678694785E-2,3.969565034E-2,-3.028678894E-2
1.332237127E1,-7.651895285E-3,3.660760820E-2,-6.746673584E-2
1.333253363E1,-3.387227654E-3,4.377502203E-2,-7.100486755E-2
1.334269598E1,-1.119008660E-2,5.615007877E-2,-5.792045593E-2
1.335285833E1,-6.880909204E-3,4.282101989E-2,-5.214881897E-2
1.336302069E1,-1.432651281E-2,3.715610504E-2,-3.697586060E-2
1.337318304E1,-2.389577031E-2,2.684031427E-2,6.331443787E-3
1.338334539E1,-1.678588986E-2,2.327039838E-2,5.596160889E-2
1.339350775E1,-1.942475140E-2,2.564361691E-2,9.529876709E-2
1.340367010E1,-3.656734526E-2,2.656050026E-2,7.478141785E-2
1.341386297E1,-4.633603990E-2,2.387972176E-2,1.681900024E-2
1.342402532E1,-2.515943348E-2,2.059599757E-2,-2.597618103E-2
1.343418768E1,-3.048713505E-2,2.653600276E-2,-1.361656189E-2
1.344435003E1,-6.669686735E-2,2.505172789E-2,4.096698761E-2
1.345451239E1,-4.321217537E-2,4.650643468E-2,-1.666259766E-2
1.346467474E1,4.390940070E-3,5.813357234E-2,-1.700963974E-1
1.347483709E1,5.748882890E-2,5.221231282E-2,-2.781639099E-1
1.348499945E1,7.225225866E-2,2.283436060E-2,-2.045812607E-1
1.349516180E1,-1.666232944E-3,-1.178935170E-2,3.553962708E-2
1.350532415E1,-6.819562614E-2,-2.072125673E-2,1.837778091E-1
1.351551703E1,-6.245654821E-2,-3.778412938E-3,7.180881500E-2
1.352564886E1,-6.379798055E-3,2.974806726E-2,-7.350635529E-2
1.353584173E1,1.077340543E-2,4.838642478E-2,-7.207107544E-2
1.354600409E1,-3.307478130E-2,4.570126534E-2,6.153964996E-2
1.355616644E1,-6.365926564E-2,7.553482056E-2,1.431379318E-1
1.356632879E1,-6.067878008E-2,7.020686567E-2,8.844280243E-2
1.357649115E1,-1.150086522E-2,5.629056692E-2,-2.421665192E-2
1.358665350E1,1.363283396E-2,3.027741611E-2,-1.278982162E-1
1.359681585E1,2.129352093E-2,-1.662462950E-2,-1.352233887E-1
1.360697821E1,1.215064526E-2,-4.383285344E-2,-5.500411987E-2
1.361714056E1,-4.883810878E-3,-4.546712339E-2,4.982280731E-2
1.362730291E1,-3.368741274E-2,-4.410488904E-2,1.433706284E-1
1.363746527E1,-6.768423319E-2,7.003754377E-3,1.573877335E-1
1.364765814E1,-6.350350380E-2,6.015042961E-2,9.316825867E-2
1.365782049E1,-4.637475312E-2,1.262125671E-1,1.578330994E-2
1.366798285E1,-9.342834353E-3,1.517944485E-1,-4.133510590E-2
1.367814520E1,1.486773789E-2,1.529283226E-1,-7.382583618E-2
1.368830755E1,1.991893351E-2,1.281964183E-1,-6.787395477E-2
1.369846991E1,2.046181262E-2,7.073606551E-2,-5.968284607E-2
1.370863226E1,-2.440616488E-3,1.608757675E-2,-4.216861725E-2
1.371879461E1,-2.492995560E-2,-1.052640378E-3,-2.253341675E-2
1.372895697E1,-3.294850886E-2,-5.656793714E-3,1.572227478E-2
1.373911932E1,-2.437734604E-2,1.064056903E-2,4.151630402E-2
1.374928167E1,-4.460677505E-3,4.002455622E-2,3.140449524E-2
1.375944403E1,-1.621177793E-2,5.160396546E-2,1.161022186E-1
1.376960638E1,-5.644445121E-2,4.992189258E-2,1.872930527E-1
1.377976873E1,-3.592547774E-2,6.539051980E-2,5.391120911E-2
1.378996160E1,1.400311291E-2,6.363294274E-2,-1.644277573E-1
1.380012396E1,1.130503416E-2,4.976259172E-2,-2.395505905E-1
1.381028631E1,-3.515791893E-2,4.615987837E-2,-1.644859314E-1
1.382044866E1,-4.896621406E-2,3.310997039E-2,-4.828453064E-2
1.383061102E1,-2.746576071E-2,3.483712673E-2,5.416202545E-2
1.384077337E1,-2.033016086E-2,3.551036865E-2,1.289453506E-1
1.385093573E1,-1.083214581E-2,2.466756105E-2,1.575193405E-1
1.386109808E1,9.878709912E-3,3.299119323E-2,1.335477829E-1
1.387126043E1,1.784586906E-2,3.429513425E-2,7.214450836E-2
1.388142279E1,-8.814185858E-4,3.421293944E-2,1.886558533E-2
1.389158514E1,-1.941716671E-2,3.346728534E-2,-4.066467285E-2
1.390174749E1,-2.785941958E-2,3.486689925E-2,-8.727264404E-2
1.391190985E1,-3.596583009E-2,2.944810688E-2,-8.352661133E-2
1.392207220E1,-3.211006522E-2,2.875070646E-2,-1.367092133E-2
1.393223455E1,-4.516962171E-2,2.989940345E-2,4.318904877E-2
1.394242742E1,-4.228001833E-2,3.229102492E-2,6.122303009E-2
1.395258978E1,-1.381669939E-2,5.506485701E-2,2.694320679E-2
1.396275213E1,1.202329993E-2,8.184961230E-2,-9.084701538E-3
1.397291448E1,2.789810300E-3,8.727910370E-2,-8.984565735E-3
1.398307684E1,-3.119896352E-2,7.681326568E-2,6.141662598E-4
1.399323919E1,-5.176015198E-2,7.223419845E-2,6.237030029E-4
1.400340155E1,-6.175117195E-2,5.682789907E-2,-2.775859833E-2
1.401356390E1,-5.242390931E-2,5.465846509E-2,-5.087280273E-2
1.402372625E1,-3.881363571E-2,4.220395163E-2,-6.173038483E-2
1.403388861E1,-2.335788310E-2,4.561806470E-2,-6.069469452E-2
1.404402318E1,-2.508741617E-2,4.037162662E-2,-1.947212219E-2
1.405421605E1,-3.425870836E-2,4.732722044E-2,2.339267731E-2
1.406437840E1,-3.621272743E-2,4.936674982E-2,2.532577515E-2
1.407454076E1,-1.942144334E-2,5.584188551E-2,3.623008728E-3
1.408470311E1,-7.795169950E-3,5.260934681E-2,-1.147270203E-3
1.409486546E1,1.194059849E-3,4.692095518E-2,-8.257865906E-3
1.410502782E1,-1.617178321E-3,6.966289133E-2,-1.757717133E-2
1.411519017E1,-1.553237438E-3,7.090356201E-2,4.038810730E-3
1.412535252E1,-1.077473164E-3,5.101034045E-2,8.710861206E-3
1.413551488E1,-2.921372652E-3,4.548905045E-2,1.332950592E-2
1.414567723E1,6.949529052E-3,3.991405666E-2,2.494239807E-2
1.415583958E1,-1.895725727E-4,4.092804343E-2,5.055618286E-2
1.416600194E1,-1.702041924E-2,5.570232123E-2,4.257678986E-2
1.417616429E1,-3.606227040E-2,5.295712501E-2,1.359939575E-2
1.418632665E1,-5.251233280E-2,4.775556922E-2,-1.730537415E-2
1.419651952E1,-2.873764932E-2,4.735869914E-2,-2.732276917E-3
1.420668187E1,-4.625251889E-2,5.155725777E-2,5.877017975E-2
1.421684422E1,-4.704262316E-2,7.423129678E-2,2.935791016E-2
1.422700658E1,-4.718720913E-3,7.074696571E-2,-7.277584076E-2
1.423716893E1,2.863545716E-2,6.139151752E-2,-1.258716583E-1
1.424733128E1,4.770317674E-2,5.389697850E-2,-9.057807922E-2
1.425749364E1,-5.292668939E-3,2.675732970E-2,-8.643150330E-3
1.426765599E1,-7.243643701E-2,7.651463151E-3,5.523300171E-2
1.427781834E1,-7.477840781E-2,1.466859877E-2,-2.260208130E-4
1.428798070E1,-2.490375936E-2,2.198716998E-2,-1.397743225E-1
1.429814305E1,6.937488914E-3,5.924050510E-2,-1.586303711E-1
1.430833592E1,-8.752524853E-3,6.692895293E-2,-4.497337341E-2
1.431849828E1,-4.052014649E-2,9.407182783E-2,8.790016174E-2
1.432866063E1,-5.525706708E-2,1.010381281E-1,1.523523331E-1
1.433882298E1,-3.709086776E-2,8.252043277E-2,1.212730408E-1
1.434898534E1,-5.943611264E-3,7.211371511E-2,4.591464996E-2
1.435914769E1,3.682419658E-2,3.024531156E-2,-3.516578674E-2
1.436931004E1,4.833716154E-2,7.898136973E-3,-6.530761719E-2
1.437947240E1,1.290538907E-2,-2.318230271E-2,-7.601165771E-2
1.438963475E1,-4.284213483E-2,-3.186448663E-2,-5.818843842E-2
1.439979710E1,-9.106627107E-2,-2.801007032E-2,-4.077339172E-2
1.440995946E1,-9.891858697E-2,4.413180053E-3,-1.885414124E-2
1.442012181E1,-4.058483243E-2,5.579885095E-2,-2.097129822E-2
1.443031468E1,1.744171977E-2,1.025726125E-1,-2.307033539E-2
1.444047704E1,6.770859659E-2,1.330544949E-1,-4.404926300E-2
1.445063939E1,7.651925087E-2,1.193361506E-1,-7.888221741E-2
1.446080174E1,6.311020255E-2,8.336499333E-2,-7.765865326E-2
1.447096410E1,2.592018247E-2,5.360593647E-2,-4.575157166E-2
1.448112645E1,-4.804684222E-2,1.760221273E-2,1.871585846E-2
1.449128880E1,-1.175691634E-1,-1.682519913E-3,1.010503769E-1
1.450145116E1,-1.520920694E-1,8.468821645E-3,1.560354233E-1
1.451161351E1,-1.266737729E-1,2.854861319E-2,1.344280243E-1
1.452177586E1,-6.358100474E-2,5.850116163E-2,1.015014648E-1
1.453193822E1,-2.020946145E-2,6.797743589E-2,1.447944641E-1
1.454210057E1,-2.651748061E-2,6.910022348E-2,2.061185837E-1
1.455226292E1,-2.168153226E-2,5.708284676E-2,4.178905487E-2
1.456242528E1,-2.047747374E-2,5.251026154E-2,-1.620864868E-1
1.457258763E1,-6.936764717E-2,3.338626027E-2,-2.159023285E-1
1.458274999E1,-1.310192198E-1,3.108988702E-2,-1.248016357E-1
1.459291234E1,-1.502843797E-1,2.778837085E-2,4.865646362E-3
1.460310521E1,-1.194478720E-1,4.819552600E-2,1.016349792E-1
1.461326756E1,-5.061136186E-2,7.623255253E-2,1.353015900E-1
1.462342992E1,3.138352931E-2,9.267184883E-2,1.093425751E-1
1.463359227E1,8.074380457E-2,8.394639194E-2,6.021118164E-2
1.464375462E1,8.818328381E-2,6.056243181E-2,3.562068939E-2
1.465391698E1,4.975855350E-2,4.940681159E-2,3.974246979E-2
1.466407933E1,-4.714146256E-3,2.907121181E-2,2.483654022E-2
1.467424168E1,-3.652420640E-2,6.864257157E-3,1.496124268E-2
1.468440404E1,-7.664641738E-2,1.360570639E-2,1.945304871E-2
1.469456639E1,-7.339027524E-2,3.439378738E-2,2.146053314E-2
1.470472874E1,-5.141265690E-2,6.442980468E-2,-1.916217804E-2
1.471489110E1,-3.517116606E-2,7.052193582E-2,-8.743667603E-2
1.472508397E1,-3.195177019E-2,6.787866354E-2,-1.191072464E-1
1.473524632E1,-4.161863029E-2,5.476538092E-2,-1.148376465E-1
1.474540868E1,-3.743474185E-2,4.077671468E-2,-9.653663635E-2
1.475557103E1,-2.391730249E-2,5.143587291E-2,-9.035015106E-2
1.476573338E1,-1.787325740E-2,6.971519440E-2,-9.607028961E-2
1.477589574E1,-3.404854238E-2,9.780745953E-2,-1.040697098E-1
1.478605809E1,-8.760245144E-2,9.285911173E-2,-1.142959595E-1
1.479622044E1,-1.455247104E-1,9.118288755E-2,-6.052112579E-2
1.480638280E1,-1.747129560E-1,5.680255219E-2,4.909324646E-2
1.481654515E1,-1.367147416E-1,1.798081025E-2,1.850900650E-1
1.482670750E1,-4.748995602E-2,-4.734735936E-3,2.360296249E-1
1.483686986E1,8.662874252E-2,-2.132579312E-2,1.987752914E-1
1.484703221E1,2.045897841E-1,-5.248090252E-3,1.267700195E-1
1.485722508E1,2.953304946E-1,1.993394457E-2,7.018470764E-2
1.486738744E1,2.904143333E-1,4.285391420E-2,7.427215576E-3
1.487754979E1,2.121383548E-1,6.885533035E-2,-5.175876617E-2
1.488771214E1,1.107193306E-1,8.378515393E-2,-3.190994263E-2
1.489787450E1,3.310771286E-2,9.460270405E-2,1.120281219E-2
1.490803685E1,-2.374970913E-2,8.865013719E-2,7.016086578E-2
1.491819920E1,-7.004551589E-2,8.174057305E-2,1.162672043E-1
1.492836156E1,-1.179288030E-1,9.229740500E-2,9.539413452E-2
1.493852391E1,-1.247035116E-1,8.222649246E-2,6.552505493E-2
1.494868626E1,-1.028451547E-1,4.995524883E-2,8.341693878E-2
1.495887914E1,-5.042875558E-2,3.365804255E-2,1.292896271E-1
1.496904149E1,-3.916081041E-2,9.044799022E-3,1.389112473E-1
1.497920384E1,-9.573914111E-3,1.691819727E-2,2.061271667E-2
1.498936620E1,5.261387676E-2,2.991833165E-2,-1.238737106E-1
1.499952855E1,1.311420053E-1,6.637206674E-2,-1.713266373E-1
1.500969090E1,1.717378050E-1,8.101724833E-2,-1.211700439E-1
1.501985326E1,1.696029902E-1,5.192803591E-2,-1.976203918E-2
1.503001561E1,7.253608108E-2,-4.882749170E-3,9.871006012E-2
1.504017796E1,-2.754434943E-2,-4.983749241E-2,4.640579224E-3
1.505034032E1,-3.974965215E-2,-6.318570673E-2,-1.632604599E-1
1.506050267E1,-2.079872042E-2,-2.714174613E-2,-1.957502365E-1
1.507066502E1,-3.452716768E-2,2.456765622E-2,-1.971721649E-2
1.508082738E1,-7.730343193E-2,1.041588932E-1,1.602239609E-1
1.509098973E1,-1.184940189E-1,1.429412067E-1,1.809883118E-1
1.510115208E1,-1.268875599E-1,1.531360745E-1,6.914615631E-2
1.511131444E1,-9.696322680E-2,1.338576972E-1,-4.303359985E-2
1.512147679E1,-3.377529979E-2,9.635614604E-2,-1.131458282E-1
1.513166966E1,5.714803934E-3,3.426070511E-2,-1.324214935E-1
1.514183202E1,2.651769668E-2,-3.774058074E-2,-1.301555634E-1
1.515199437E1,-7.137380540E-3,-8.925151825E-2,-9.484958649E-2
1.516215672E1,-3.439008445E-2,-1.115979925E-1,-8.380889893E-2
1.517231908E1,-7.931797951E-2,-9.609507024E-2,-6.343841553E-2
1.518248143E1,-1.069292054E-1,-1.755846292E-2,-3.863906860E-2
1.519264378E1,-1.130620316E-1,6.621292233E-2,-9.613037109E-3
1.520280614E1,-9.328338504E-2,1.223217919E-1,1.898193359E-2
1.521296849E1,-3.167586029E-2,1.537349671E-1,5.891799927E-2
1.522313084E1,1.666039228E-2,1.514228135E-1,6.742095947E-2
1.523332372E1,4.530400038E-2,1.160498857E-1,6.876945496E-2
1.524348607E1,3.803496063E-2,6.220626831E-2,6.295013428E-2
1.525364842E1,5.924397707E-2,-4.378557205E-4,5.013275146E-2
1.526381078E1,6.819112599E-2,-4.578709602E-2,2.576541901E-2
1.527397313E1,1.052263379E-1,-6.470903754E-2,-1.253700256E-2
1.528413548E1,1.345867217E-1,-4.127120972E-2,-2.391624451E-2
1.529429784E1,1.020025238E-1,-4.983335733E-3,9.483814240E-2
1.530446019E1,1.323556155E-2,2.392184734E-2,6.458568573E-2
1.531462254E1,-6.166281551E-2,2.706688643E-2,-1.847772598E-1
1.532478490E1,-1.019202471E-1,3.139606118E-2,-2.759876251E-1
1.533494725E1,-1.426295191E-1,3.991399705E-2,-1.175603867E-1
1.534514012E1,-1.756695658E-1,2.935287356E-2,3.798484802E-2
1.535530248E1,-1.740902364E-1,1.937529445E-2,7.262802124E-2
1.536546483E1,-1.155563146E-1,4.046481848E-2,2.405452728E-2
1.537562718E1,-9.713000059E-2,4.561479390E-2,-4.807472229E-3
1.538578954E1,-8.560997248E-2,4.056157172E-2,-9.510993958E-3
1.539595189E1,-6.993497908E-2,1.175294816E-2,2.607154846E-2
1.540611424E1,-5.286874622E-2,2.216011286E-3,4.911708832E-2
1.541627660E1,-5.276811868E-2,-2.771943808E-3,2.924251556E-2
1.542643895E1,-5.247410387E-2,-8.773133159E-4,-1.150321960E-2
1.543660130E1,-4.042185843E-2,2.000898123E-2,-3.507614136E-2
1.544676366E1,-3.358685970E-2,2.884824574E-2,8.869171143E-4
1.545692601E1,-1.282503456E-2,3.703086078E-2,1.488876343E-2
1.546708836E1,-3.732278943E-3,6.312555820E-2,-1.147937775E-2
1.547725072E1,1.073580980E-2,7.865614444E-2,-6.102466583E-2
1.548744359E1,1.347672194E-2,7.270693779E-2,-7.429504395E-2
1.549760594E1,3.530593961E-2,7.207635045E-2,-5.184650421E-2
1.550776830E1,4.503421485E-2,6.440906972E-2,-1.085567474E-2
1.551793065E1,4.523262382E-2,4.727794603E-2,-8.414268494E-3
1.552809300E1,3.833367676E-2,4.460445419E-2,-1.779460907E-2
1.553825536E1,2.218049020E-2,3.723565117E-2,-2.934646606E-2
1.554841771E1,1.115620136E-3,5.860597268E-2,-3.367519379E-2
1.555858006E1,1.066228747E-2,5.171500891E-2,-4.254722595E-2
1.556874242E1,1.959842443E-2,4.549621418E-2,-2.768230438E-2
1.557890477E1,3.561326861E-2,3.732764721E-2,-5.950927734E-3
1.558906712E1,2.821636945E-2,5.062127486E-2,-5.897521973E-3
1.559922948E1,-4.467979074E-3,4.725313187E-2,-2.470779419E-2
1.560942235E1,-5.274682492E-2,3.695107251E-2,-1.957702637E-2
1.561958470E1,-8.122713864E-2,3.416332230E-2,-5.060195923E-3
1.562974706E1,-7.130626589E-2,4.103489593E-2,9.292602539E-3
1.563990941E1,-7.098188251E-2,6.697160751E-2,3.277778625E-2
1.565007176E1,-7.500080764E-2,9.954056144E-2,2.982234955E-2
1.566023412E1,-7.328991592E-2,1.319192946E-1,8.072853088E-3
1.567039647E1,-7.296273857E-2,1.289473474E-1,7.999420166E-3
1.568055882E1,-5.549129099E-2,8.627761900E-2,4.334068298E-2
1.569072118E1,-6.897123158E-2,3.281234205E-2,5.446910858E-2
1.570088353E1,-8.492214978E-2,1.382422075E-2,-1.993083954E-2
1.571104588E1,-4.174714535E-2,1.763259247E-2,-1.163692474E-1
1.572120824E1,-1.514881849E-3,1.169309393E-2,-6.468677521E-2
1.573137059E1,4.255968332E-2,4.731826112E-2,-9.296417236E-3
1.574153294E1,5.430436879E-2,5.641052127E-2,-2.565670013E-2
1.575172582E1,-5.886130035E-3,3.668362275E-2,5.041694641E-2
1.576188817E1,-3.260421008E-2,1.897471398E-2,-9.741783142E-3
1.577205052E1,-2.591602504E-2,2.301836386E-2,-1.514482498E-1
1.578221288E1,-2.520583570E-3,2.839899622E-2,-1.582431793E-1
1.579237523E1,1.042590290E-2,4.916691780E-2,-8.976936340E-3
1.580253758E1,2.540923655E-3,7.616816461E-2,1.351861954E-1
1.581269994E1,-3.516200185E-2,8.695283532E-2,1.492900848E-1
1.582286229E1,-5.527057499E-2,1.006449163E-1,9.005928040E-2
1.583302464E1,-3.508655727E-2,9.193315357E-2,2.938365936E-2
1.584318700E1,-1.366493851E-2,6.410968304E-2,-2.544021606E-2
1.585334935E1,7.861480117E-3,3.193829209E-2,-2.018737793E-2
1.586351170E1,1.953282952E-2,2.378958836E-2,-9.603500366E-4
1.587367406E1,5.781605840E-3,-1.052935049E-2,2.270698547E-2
1.588386693E1,-2.578405291E-2,-2.106848173E-2,2.229022980E-2
1.589402928E1,-5.874431878E-2,-3.209164366E-3,5.406379700E-3
1.590419164E1,-6.072784215E-2,1.693803258E-2,-4.107475281E-3
1.591435399E1,-5.580996722E-2,5.870462954E-2,7.835388184E-3
1.592451634E1,-2.272178233E-2,9.074513614E-2,2.898693085E-2
1.593467870E1,9.905509651E-3,1.037307680E-1,3.319168091E-2
1.594484105E1,6.377309561E-3,1.003521085E-1,2.320957184E-2
1.595500340E1,-1.151968539E-2,7.120583951E-2,8.653640747E-3
1.596516576E1,-4.620768875E-2,3.537780046E-2,-3.246307373E-3
1.597532811E1,-6.427598745E-2,9.370349348E-3,-3.174781799E-3
1.598549046E1,-6.096968800E-2,-7.116906345E-3,-7.476806641E-4
1.599565282E1,-3.170031309E-2,1.864183322E-2,1.106452942E-2
1.600584569E1,9.264856577E-3,5.284443125E-2,-1.045894623E-2
1.601597752E1,4.510369897E-2,6.690730155E-2,9.629821777E-2
1.602617040E1,1.890610158E-2,5.812053382E-2,1.653652191E-1
1.603633275E1,2.923116088E-3,5.753501505E-2,-3.375148773E-2
1.604649510E1,7.212132215E-3,5.808535218E-2,-1.700201035E-1
1.605665746E1,-1.100152731E-4,3.976120427E-2,-9.137058258E-2
1.606681981E1,-3.216222674E-2,1.596778259E-2,1.175212860E-2
1.607698216E1,-4.181773216E-2,1.601622626E-2,3.035831451E-2
1.608714452E1,-3.279259056E-2,2.745742351E-2,-5.639076233E-3
1.609730687E1,-3.075010329E-2,4.101639986E-2,-2.442550659E-2
1.610746922E1,-1.218859851E-2,5.896160752E-2,-2.761840820E-3
1.611763158E1,1.230287552E-2,6.904534996E-2,3.277015686E-2
1.612779393E1,3.065514565E-2,6.200199574E-2,6.291484833E-2
1.613795628E1,2.687673271E-2,5.689716339E-2,4.757213593E-2
1.614811864E1,-5.530044436E-4,4.708501697E-2,1.597118378E-2
1.615831151E1,-1.546137035E-2,4.952019453E-2,-1.974010468E-2
1.616847386E1,-3.462155908E-2,3.601830453E-2,-1.468181610E-2
1.617863622E1,-5.085564405E-2,3.461040556E-2,-5.007743835E-3
1.618879857E1,-6.665888429E-2,2.353733778E-2,-4.958152771E-3
1.619896092E1,-5.846624821E-2,3.842210770E-2,-1.193904877E-2
1.620912328E1,-3.382231295E-2,5.035229027E-2,-3.061580658E-2
1.621928563E1,-2.117846161E-2,7.382048666E-2,-4.074096680E-3
1.622944798E1,-5.975171924E-3,8.255689591E-2,1.256370544E-2
1.623961034E1,-9.045772254E-3,7.690984011E-2,5.238533020E-3
1.624977269E1,-1.336137205E-2,8.836483955E-2,2.791404724E-3
1.625993504E1,-4.499998689E-2,7.450283319E-2,-6.702423096E-3
1.627012791E1,-3.984984010E-2,7.384584099E-2,5.219459534E-3
1.628029027E1,-3.436560929E-2,6.478907913E-2,1.222515106E-2
1.629045262E1,-2.897308767E-2,4.996635765E-2,1.435852051E-2
1.630061498E1,-2.405242622E-2,4.359793663E-2,-4.885673523E-3
1.631077733E1,-3.165506572E-2,5.260436982E-2,-4.499435425E-2
1.632093968E1,-2.801150084E-2,4.172807932E-2,-4.188156128E-2
1.633110204E1,-3.227975219E-2,4.171504080E-2,-1.754570007E-2
1.634126439E1,-2.519425750E-2,4.698515683E-2,3.463840485E-2
1.635142674E1,-2.989022434E-2,5.439965427E-2,2.688026428E-2
1.636158910E1,-4.802118242E-2,6.392668188E-2,-9.068489075E-3
1.637175145E1,-6.267396361E-2,6.403549016E-2,-2.544307709E-2
1.638191380E1,-5.767146498E-2,4.584266245E-2,1.994800568E-2
1.639210667E1,-3.842794895E-2,2.830647677E-2,8.821296692E-2
1.640226903E1,-2.230152488E-2,3.676722571E-2,1.268806458E-1
1.641243138E1,7.259771228E-3,5.357262492E-2,1.081581116E-1
1.642259374E1,9.093806148E-4,6.707897037E-2,4.952144623E-2
1.643275609E1,-1.673711091E-2,8.748278022E-2,3.863334656E-3
1.644291844E1,-7.522545755E-3,8.918335289E-2,-3.262519836E-3
1.645308080E1,1.666389406E-3,5.119398236E-2,2.757453918E-2
1.646324315E1,-2.805457264E-2,3.972303867E-2,6.964015961E-2
1.647340550E1,-3.277697414E-2,5.399454758E-2,4.581451416E-3
1.648356786E1,1.589977741E-2,5.437928438E-2,-1.042480469E-1
1.649373021E1,6.641544402E-2,3.737803176E-2,-1.259927750E-1
1.650389256E1,9.361600876E-2,1.962266862E-2,-1.119737625E-1
1.651405492E1,5.931928009E-2,-9.042322636E-3,-1.775836945E-2
1.652424779E1,-5.161836743E-4,-2.807088196E-2,7.469081879E-2
1.653441014E1,-4.992807657E-2,-1.248758286E-2,-1.405334473E-2
1.654457249E1,-2.249968052E-2,1.938962191E-2,-1.436986923E-1
1.655473485E1,4.573814571E-3,7.115513831E-2,-1.101942062E-1
1.656489720E1,8.425265551E-3,1.160667241E-1,9.516620636E-2
1.657505956E1,-4.234337062E-2,1.332612336E-1,2.211542130E-1
1.658522191E1,-8.388802409E-2,1.007369608E-1,1.465330124E-1
1.659538426E1,-8.551133424E-2,7.650989294E-2,2.597999573E-2
1.660554662E1,-6.395830959E-2,4.281421006E-2,-4.994010925E-2
1.661570897E1,-4.742874205E-2,2.190321684E-2,-8.912086487E-2
1.662587132E1,-2.732820064E-2,-1.697972417E-2,-7.796478271E-2
1.663603368E1,-5.762428045E-4,-4.777789116E-2,-5.519676208E-2
1.664622655E1,-8.540727198E-3,-5.920787156E-2,-4.453659058E-3
1.665638890E1,-2.858535200E-2,-4.743589461E-2,3.360176086E-2
1.666655125E1,-4.453925043E-2,-1.561328769E-3,3.795909882E-2
1.667671361E1,-4.079268873E-2,4.493428767E-2,9.108543396E-3
1.668687596E1,-2.349139750E-2,9.275914729E-2,-1.923084259E-2
1.669703832E1,-1.681243628E-2,1.140285879E-1,-1.399707794E-2
1.670720067E1,-2.313522995E-2,1.045928150E-1,3.370475769E-2
1.671736302E1,-6.375171244E-3,9.319844842E-2,4.753112793E-2
1.672752538E1,7.848553360E-3,5.605855584E-2,4.929161072E-2
1.673768773E1,2.262871712E-2,4.834666848E-2,2.732467651E-2
1.674785008E1,9.786196053E-3,4.144296050E-2,-3.203868866E-2
1.675801244E1,4.820860922E-3,1.918923855E-2,-6.429958344E-2
1.676817479E1,-7.174447179E-3,3.036916256E-3,-4.642105103E-2
1.677836766E1,-1.260729879E-2,1.120781898E-2,-5.022048950E-3
1.678853001E1,-9.524598718E-3,1.380696893E-2,1.325063705E-1
1.679869237E1,-2.361533791E-2,1.669985056E-2,8.294963837E-2
1.680885472E1,-8.636116982E-3,2.316489816E-2,-1.451463699E-1
1.681901708E1,2.845633030E-2,4.266688228E-2,-1.633663177E-1
1.682917943E1,2.690492570E-2,6.590753794E-2,-4.194259644E-3
1.683934178E1,-2.056747675E-2,5.106794834E-2,7.649230957E-2
1.684950414E1,-3.515553474E-2,3.052744269E-2,7.783699036E-2
1.685966649E1,-4.263290763E-2,3.768178821E-2,4.601860046E-2
1.686982884E1,-3.810568154E-2,4.384002090E-2,2.188873291E-2
1.687999120E1,-7.739454508E-3,5.181086063E-2,2.885627747E-2
1.689018407E1,1.679230481E-2,5.683577061E-2,2.145385742E-2
1.690034642E1,4.498399794E-3,3.527563810E-2,3.546905518E-2
1.691050877E1,-1.263017952E-2,1.811978221E-2,4.918670654E-2
1.692067113E1,-2.909126878E-2,-6.680756807E-3,2.722263336E-2
1.693083348E1,-2.763866633E-2,-1.304745674E-2,-1.503944397E-3
1.694099583E1,-1.622641832E-2,2.749878168E-2,-2.026081085E-2
1.695115819E1,-4.523599148E-2,3.877672553E-2,-3.399848938E-2
1.696132054E1,-6.464531273E-2,3.567406535E-2,-4.989337921E-2
1.697148290E1,-5.588077754E-2,4.219126701E-2,-4.662990570E-2
1.698164525E1,-4.292532802E-2,3.465867043E-2,-2.450752258E-2
1.699180760E1,-3.025988489E-2,3.188753128E-2,-3.786087036E-4
1.700196996E1,-2.232233435E-2,3.379589319E-2,2.063751221E-3
1.701213231E1,-2.585200220E-2,3.310734034E-2,-9.678840637E-3
1.702229466E1,-4.287289828E-2,2.545499802E-2,-1.893043518E-2
1.703248753E1,-4.263297468E-2,2.549973130E-2,-4.920959473E-2
1.704264989E1,-5.169827491E-2,1.907342672E-2,-6.236934662E-2
1.705281224E1,-6.110941619E-2,2.762722969E-2,-4.932594299E-2
1.706297459E1,-5.255170912E-2,3.146106005E-2,-2.472305298E-2
1.707313695E1,-2.597732842E-2,2.054789662E-2,-2.417945862E-2
1.708329930E1,6.772823632E-3,2.338412404E-2,-2.365589142E-2
1.709346166E1,3.915465623E-2,1.815074682E-2,-2.078056335E-2
1.710362401E1,4.534985870E-2,1.665398479E-2,-1.330375671E-2
1.711378636E1,3.299841285E-2,8.977919817E-3,1.059532166E-3
1.712394872E1,1.399712265E-2,1.841753721E-3,1.505851746E-2
1.713411107E1,-4.479795694E-3,7.074356079E-3,-1.946449280E-3
1.714427342E1,-1.542061567E-2,1.526382565E-2,-1.633739471E-2
1.715446629E1,-2.128258348E-2,3.364768624E-2,-1.165866852E-2
1.716462865E1,-5.484081805E-3,4.344373941E-2,1.183128357E-2
1.717479100E1,-8.838154376E-3,4.233741760E-2,1.828956604E-2
1.718495335E1,-1.444162428E-2,3.758552670E-2,-1.444816589E-3
1.719511571E1,-1.495369524E-2,4.386359453E-2,-1.130962372E-2
1.720527806E1,-1.719503850E-2,3.318324685E-2,2.157688141E-2
1.721544041E1,-2.294313908E-2,2.453288436E-2,6.803607941E-2
1.722560277E1,-4.687662423E-2,1.173436642E-3,8.066558838E-2
1.723576512E1,-8.895754814E-2,2.750232816E-2,7.751464844E-3
1.724592748E1,-6.398607045E-2,5.686038733E-2,-1.392822266E-1
1.725608983E1,-1.838414371E-2,7.223498821E-2,-1.725597382E-1
1.726625218E1,8.676499128E-4,7.882532477E-2,-9.661197662E-2
1.727641454E1,-4.192769527E-3,5.380266905E-2,-6.197547913E-2
1.728657689E1,-4.614849389E-2,1.249894500E-2,3.586864471E-2
1.729673924E1,-8.430822194E-2,1.063740253E-2,1.595783234E-2
1.730690160E1,-7.546205074E-2,1.721155643E-2,-1.358222961E-1
1.731706395E1,-3.353157640E-2,3.599685431E-2,-1.642570496E-1
1.732725682E1,-9.873658419E-4,5.260212719E-2,1.338005066E-2
1.733741917E1,1.481892914E-2,8.217263222E-2,1.735782623E-1
1.734758153E1,-7.749125361E-3,9.977512062E-2,1.442966461E-1
1.735774388E1,-2.269219607E-2,1.014474481E-1,4.475784302E-2
1.736790624E1,-5.279999226E-2,9.572131932E-2,-2.235698700E-2
1.737806859E1,-4.850267619E-2,8.328828216E-2,-3.865146637E-2
1.738823094E1,-3.500793874E-2,4.799737036E-2,-3.816223145E-2
1.739839330E1,-1.765351743E-2,2.750328183E-2,-1.401519775E-2
1.740855565E1,8.513353765E-3,-2.340938151E-2,7.362365723E-3
1.741874852E1,8.843906224E-3,-4.326833785E-2,7.113456726E-3
1.742891087E1,-1.575578749E-2,-3.715538234E-2,-2.212524414E-4
1.743907323E1,-3.464883566E-2,1.754686236E-3,-1.450920105E-2
1.744923558E1,-3.645381331E-2,6.158398837E-2,-2.847671509E-2
1.745939793E1,-2.940580249E-2,9.742309898E-2,2.686500549E-3
1.746956029E1,-2.558668703E-2,1.308937371E-1,2.860736847E-2
1.747972264E1,-1.511556655E-2,1.524933428E-1,5.171394348E-2
1.748988499E1,6.851069629E-3,1.314422637E-1,6.026840210E-2
1.750004735E1,2.132202685E-2,9.433494508E-2,5.210304260E-2
1.751020970E1,2.369530499E-2,4.855735973E-2,1.574230194E-2
1.752037206E1,1.167160273E-2,2.996644005E-2,-1.762580872E-2
1.753053441E1,6.836570799E-3,2.434097975E-2,-5.282878876E-2
1.754072728E1,1.390135288E-2,1.962899044E-2,-6.825733185E-2
1.755088963E1,-2.888560295E-3,2.039286122E-2,1.267862320E-1
1.756105199E1,-4.982025176E-2,2.952518687E-2,1.362085342E-1
1.757121434E1,-4.532938451E-2,6.149310246E-2,-4.819679260E-2
1.758137669E1,-1.611294597E-2,8.539795876E-2,-1.607189178E-1
1.759153905E1,8.116953075E-3,9.559504688E-2,-1.082105637E-1
1.760170140E1,-1.647819579E-2,8.429896086E-2,-1.182365417E-2
1.761186375E1,-4.650089890E-2,4.566875845E-2,2.611827850E-2
1.762202611E1,-4.585799575E-2,3.575574607E-2,3.510475159E-2
1.763218846E1,-3.337858617E-2,2.291441709E-2,2.030754089E-2
1.764235082E1,-1.650698483E-2,4.279150814E-2,1.994991302E-2
1.765251317E1,-2.790182829E-3,5.699188262E-2,3.616523743E-2
1.766267552E1,-1.887239516E-3,6.323570013E-2,6.632423401E-2
1.767283788E1,-1.574178040E-2,6.878467649E-2,6.283378601E-2
1.768300023E1,-1.550185680E-2,7.155601680E-2,7.383346558E-3
1.769319310E1,-2.213238180E-2,6.260085851E-2,-2.342128754E-2
1.770335545E1,-2.589465678E-2,4.480133206E-2,-6.424903870E-3
1.771351781E1,-1.782581210E-2,2.242965251E-2,1.024627686E-2
1.772368016E1,-1.954567432E-2,1.656656712E-2,1.716518402E-2
1.773384251E1,-9.564407170E-3,1.497009397E-2,-6.782531738E-3
1.774400487E1,2.168565989E-4,2.732989192E-2,-6.588935852E-3
1.775416722E1,7.682643831E-3,4.630349576E-2,6.370544434E-4
1.776432958E1,-6.245650351E-3,6.226500124E-2,5.411148071E-3
1.777449193E1,-2.451608330E-2,6.849103421E-2,3.024101257E-3
1.778465428E1,-1.878977567E-2,6.282861531E-2,-1.355934143E-2
1.779481664E1,-2.508900315E-2,6.213436276E-2,8.897781372E-4
1.780497899E1,-2.178716660E-2,6.144236028E-2,1.038360596E-2
1.781517186E1,-3.296298534E-2,5.379551649E-2,-1.622200012E-3
1.782533421E1,-3.226543963E-2,4.653344303E-2,-1.337432861E-2
1.783549657E1,-3.648585081E-2,3.964325786E-2,-1.311111450E-2
1.784565892E1,-3.584473580E-2,3.788893670E-2,-1.291370392E-2
1.785582127E1,-2.327402681E-2,4.329061508E-2,6.254196167E-3
1.786598363E1,-1.760262251E-2,4.620054364E-2,1.087093353E-2
1.787614598E1,-2.329396456E-2,5.379049480E-2,5.955696106E-3
1.788630833E1,-3.314308077E-2,6.367905438E-2,-8.261680603E-3
1.789647069E1,-3.550510854E-2,6.662946939E-2,-1.281452179E-2
1.790663304E1,-3.293361515E-2,7.949495316E-2,-1.256561279E-2
1.791679540E1,-3.505487740E-2,6.420075893E-2,-4.825592041E-4
1.792695775E1,-3.958070278E-2,5.184143782E-2,1.610088348E-2
1.793712010E1,-2.990929782E-2,4.226933420E-2,1.641273499E-3
1.794728246E1,-2.788314223E-2,4.006561637E-2,-1.492404938E-2
1.795747533E1,-1.193387061E-2,4.514914751E-2,-2.884006500E-2
1.796763768E1,3.784745932E-3,5.275601149E-2,-1.888942719E-2
1.797780003E1,1.508427411E-2,5.342739820E-2,9.809494019E-3
1.798796239E1,2.447733283E-2,4.224132001E-2,4.266834259E-2
1.799812474E1,3.250159323E-3,5.953165889E-2,4.667663574E-2
1.800828709E1,-1.740685105E-2,5.992685258E-2,-1.420974731E-3
1.801844945E1,-4.723624885E-2,5.133861303E-2,-2.973651886E-2
1.802861180E1,-4.579164088E-2,5.764265358E-2,-2.208995819E-2
1.803877416E1,-4.475742579E-2,5.719585717E-2,2.318096161E-2
1.804893651E1,-4.884929210E-2,6.637525558E-2,-9.975433350E-4
1.805909886E1,-1.255840063E-2,7.133315504E-2,-9.320068359E-2
1.806929173E1,3.354448825E-2,7.555496693E-2,-3.481197357E-2
1.807945409E1,5.359452963E-2,6.176157296E-2,6.972599030E-2
1.808961644E1,3.754034638E-2,5.984191597E-2,7.083797455E-2
1.809977879E1,-2.187902480E-2,2.924717963E-2,8.146381378E-2
1.810994115E1,-4.794118553E-2,2.061188221E-2,2.549552917E-2
1.812010350E1,-3.085071594E-2,4.139898717E-2,-1.617889404E-1
1.813026585E1,4.875436425E-3,4.073567688E-2,-2.961807251E-1
1.814042821E1,2.641915530E-2,2.689342201E-2,-2.179393768E-1
1.815059056E1,-3.875894845E-2,9.270608425E-4,-8.891105652E-3
1.816075291E1,-1.173355207E-1,-1.914151013E-3,1.114978790E-1
1.817091527E1,-1.276567876E-1,2.769134194E-2,1.070747375E-1
1.818107762E1,-1.017386541E-1,6.096027792E-2,2.481269836E-2
1.819127049E1,-5.748887360E-2,8.918932825E-2,-2.764701843E-2
1.820143285E1,-2.259652317E-2,1.014317125E-1,-2.721881866E-2
1.821159520E1,-4.652373493E-3,8.448322862E-2,2.287101746E-2
1.822175755E1,-2.689137310E-2,5.307557434E-2,6.975650787E-2
1.823191991E1,-3.636244684E-2,1.227677613E-2,9.455204010E-2
1.824208226E1,-5.237676203E-2,-6.505914032E-3,7.401371002E-2
1.825224461E1,-5.377211422E-2,1.360800117E-2,2.079772949E-2
1.826240697E1,-4.817383736E-2,2.526040375E-2,-2.683925629E-2
1.827256932E1,-2.660996467E-2,5.746792257E-2,-2.873706818E-2
1.828273167E1,-3.890149295E-3,8.572261781E-2,-9.396553040E-3
1.829289403E1,1.336276531E-3,8.331707865E-2,2.849292755E-2
1.830305638E1,1.821036637E-2,6.163256615E-2,5.397605896E-2
1.831321874E1,5.208048224E-2,4.386604577E-2,7.192516327E-2
1.832338109E1,6.976060569E-2,3.896436840E-2,5.890178680E-2
1.833354344E1,6.915285438E-2,4.913257807E-2,4.611873627E-2
1.834370580E1,6.207090244E-2,5.774345249E-2,4.544162750E-2
1.835386815E1,6.499610841E-2,6.515956670E-2,3.757476807E-2
1.836406102E1,6.346058100E-2,6.950461864E-2,4.418754578E-2
1.837422337E1,3.107460588E-2,7.599470019E-2,1.214771271E-1
1.838438573E1,-2.664959431E-2,6.762503833E-2,1.004037857E-1
1.839454808E1,-1.674885303E-2,6.191695482E-2,-3.129863739E-2
1.840471043E1,-1.167573780E-2,4.616234452E-2,-8.265399933E-2
1.841487279E1,-4.820333421E-2,4.004744440E-2,-5.052089691E-2
1.842503514E1,-7.166387141E-2,4.792798311E-2,-8.201599121E-5
1.843519749E1,-4.779968411E-2,8.321632445E-2,9.230613708E-3
1.844535985E1,-2.549512684E-2,1.050261110E-1,-2.412033081E-2
1.845552220E1,-1.141470671E-2,1.159417778E-1,-9.948635101E-2
1.846568456E1,-1.830104738E-2,1.142181233E-1,-1.260814667E-1
1.847584691E1,-4.208748788E-2,7.358452678E-2,5.104255676E-2
1.848600926E1,-4.704322666E-2,3.246037290E-2,2.746820450E-1
1.849620213E1,-5.428615957E-2,3.132413700E-2,2.934513092E-1
1.850636449E1,-4.913278669E-2,4.836252704E-2,1.229877472E-1
1.851652684E1,-2.889208496E-2,5.692667142E-2,-4.316329956E-3
1.852668919E1,3.273896873E-3,5.389335006E-2,1.957893372E-2
1.853685155E1,7.773190737E-5,4.403135180E-2,1.280889511E-1
1.854701390E1,-1.171135902E-2,4.041261226E-2,1.849184036E-1
1.855717625E1,-5.127009749E-2,3.316356987E-2,1.085014343E-1
1.856733861E1,-5.752545595E-2,2.131707966E-2,-3.745841980E-2
1.857750096E1,-4.130500555E-2,8.814092726E-3,-1.478624344E-1
1.858766332E1,-1.967708021E-2,3.199648857E-2,-1.476325989E-1
1.859782567E1,-1.638516784E-3,4.957771301E-2,-5.762386322E-2
1.860798802E1,-2.133896947E-2,4.832796007E-2,2.842903137E-2
1.861818089E1,-4.908826947E-2,4.176419973E-2,5.158424377E-2
1.862834325E1,-4.709218442E-2,2.948520705E-2,3.895473480E-2
1.863850560E1,-3.527300060E-2,1.178286597E-2,2.656364441E-2
1.864866795E1,-9.754255414E-3,1.492068172E-2,-3.303241730E-2
1.865883031E1,-4.477351904E-3,-8.091526106E-3,-1.128530502E-1
1.866899266E1,-5.250188708E-2,-8.846269920E-3,-1.581382751E-1
1.867915501E1,-1.221567690E-1,-8.665297180E-3,-1.342344284E-1
1.868931737E1,-1.823031008E-1,-1.014905050E-2,-8.468246460E-2
1.869947972E1,-2.047465742E-1,-2.567660064E-3,-4.547595978E-2
1.870964208E1,-2.113326341E-1,1.985255629E-3,-2.817821503E-2
1.871980443E1,-1.995327473E-1,1.005705446E-3,6.399154663E-4
1.872996678E1,-1.405200511E-1,1.348663121E-2,5.273818970E-4
1.874012914E1,-7.456175983E-2,4.208504409E-2,-3.738689423E-2
1.875032201E1,-8.447438478E-3,3.241844103E-2,-9.592342377E-2
1.876048436E1,5.252021551E-2,3.781194985E-2,-1.345367432E-1
1.877064671E1,8.623266220E-2,3.933884203E-2,-1.487903595E-1
1.878080907E1,1.302381754E-1,1.743149012E-2,-1.061048508E-1
1.879097142E1,1.229233891E-1,-2.125906199E-2,-9.729290009E-2
1.880113377E1,9.107591212E-2,-6.990861148E-2,-1.311731339E-1
1.881129613E1,1.677720249E-2,-9.484776855E-2,-7.452678680E-2
1.882145848E1,-4.713109881E-2,-1.042439118E-1,1.584663391E-1
1.883162083E1,-5.995856225E-2,-5.521368980E-2,3.991155624E-1
1.884178319E1,-2.637539804E-2,3.810423613E-2,3.541755676E-1
1.885194554E1,2.216848731E-2,1.222065985E-1,8.578300476E-2
1.886210790E1,5.381489545E-2,1.852257401E-1,-6.445789337E-2
1.887230077E1,8.257233351E-2,1.944744587E-1,-3.260898590E-2
1.888246312E1,1.366996020E-1,1.746382564E-1,2.242851257E-2
1.889262547E1,1.619471163E-1,1.252537370E-1,9.056949615E-2
1.890278783E1,1.305841357E-1,5.790608004E-2,3.736495972E-3
1.891295018E1,8.597666025E-2,-1.237963885E-2,-2.564163208E-1
1.892311253E1,1.197903007E-1,-4.840867594E-2,-4.481039047E-1
1.893327489E1,1.227257773E-1,-6.522503495E-2,-3.313941956E-1
1.894343724E1,9.260453284E-2,-7.331499457E-2,-1.973438263E-2
1.895359959E1,4.064840078E-2,-5.079219490E-2,1.572828293E-1
1.896376195E1,2.182310820E-2,3.618299961E-4,1.002216339E-1
1.897392430E1,-1.006304473E-2,8.430583775E-2,1.121711731E-2
1.898408666E1,-7.354949415E-2,1.482872069E-1,-3.378868103E-2
1.899424901E1,-1.609853506E-1,1.866635382E-1,4.822731018E-3
1.900441136E1,-1.398068666E-1,2.023424804E-1,1.064052582E-1
1.901460423E1,9.420096874E-3,1.784397364E-1,8.572292328E-2
1.902476659E1,1.024050191E-1,1.136638671E-1,2.057170868E-2
1.903492894E1,1.002321988E-1,5.460408330E-2,2.032756805E-2
1.904509129E1,2.242296934E-3,-3.102555871E-3,3.421974182E-2
1.905525365E1,-1.185535416E-1,-5.939428508E-2,2.902317047E-2
1.906541600E1,-2.243024707E-1,-4.326428473E-2,2.396488190E-2
1.907557835E1,-2.756670713E-1,-3.404791653E-2,-4.680633545E-3
1.908574071E1,-2.770082355E-1,9.069502354E-3,-6.899452209E-2
1.909590306E1,-2.386393249E-1,8.326663077E-2,-1.030874252E-1
1.910606541E1,-1.680396795E-1,1.213075072E-1,-6.801414490E-2
1.911622777E1,-7.972556353E-2,9.918792546E-2,-1.247882843E-2
1.912639012E1,1.278801262E-2,4.984536767E-2,-2.823829651E-3
1.913655248E1,1.200551242E-1,-7.660865784E-3,-7.855224609E-2
1.914674535E1,2.143288553E-1,-2.752569318E-2,-4.381275177E-2
1.915690770E1,1.963939667E-1,-3.164224327E-2,1.294021606E-1
1.916707005E1,1.633280218E-1,-1.913884282E-2,6.303119659E-2
1.917723241E1,1.467283666E-1,-5.826920271E-3,-1.507768631E-1
1.918739476E1,1.226064414E-1,4.643303156E-2,-2.000017166E-1
1.919755711E1,5.472902954E-2,7.393203676E-2,-1.090612411E-1
1.920771947E1,-4.112914205E-2,7.360105217E-2,-3.395557404E-2
1.921788182E1,-1.554390788E-1,8.934147656E-2,3.053188324E-2
1.922804417E1,-2.334356755E-1,8.211132884E-2,1.222553253E-1
1.923820653E1,-2.281284630E-1,1.010800302E-1,1.578969955E-1
1.924836888E1,-1.620839834E-1,1.365028322E-1,8.417034149E-2
1.925853124E1,-7.223795354E-2,1.633151174E-1,7.065773010E-3
1.926872411E1,2.645589411E-2,1.429962814E-1,-1.442050934E-2
1.927888646E1,1.175095290E-1,8.396975696E-2,-1.197147369E-2
1.928904881E1,1.429804415E-1,1.031741500E-2,-2.397537231E-3
1.929921117E1,1.030918360E-1,-6.379318237E-2,7.085800171E-3
1.930937352E1,5.888120830E-2,-1.013132036E-1,3.057098389E-2
1.931953587E1,1.011273265E-2,-1.011128649E-1,3.473854065E-2
1.932969823E1,-1.357665658E-2,-7.100135088E-2,-3.670692444E-3
1.933986058E1,-4.678218067E-2,-1.298184693E-2,-3.434467316E-2
1.935002293E1,-6.141676009E-2,5.877639353E-2,-3.144168854E-2
1.936018529E1,-7.889938354E-2,1.088342071E-1,-2.150726318E-2
1.937034764E1,-9.440010786E-2,1.374329925E-1,-2.355861664E-2
1.938054051E1,-1.052799672E-1,1.377094984E-1,-6.611824036E-3
1.939070287E1,-1.117174625E-1,1.051858962E-1,2.654838562E-2
1.940086522E1,-9.252618253E-2,7.782505453E-2,6.149959564E-2
1.941102757E1,-6.463034451E-2,5.502033979E-2,6.752395630E-2
1.942118993E1,-4.416906834E-2,3.659948707E-2,4.028129578E-2
1.943135228E1,-3.761757910E-2,2.973745018E-2,2.771759033E-2
1.944151463E1,-2.079673111E-2,3.199810535E-2,3.434371948E-2
1.945167699E1,-1.259827614E-2,2.688203007E-2,3.371334076E-2
1.946183934E1,-1.071405411E-2,2.627832443E-2,1.186561584E-2
1.947200169E1,-1.542545855E-2,2.822908387E-2,-2.552986145E-3
1.948216405E1,-2.487030625E-2,3.329860792E-2,-2.140235901E-2
1.949232640E1,-1.551075280E-2,2.958149090E-2,-2.575778961E-2
1.950251927E1,-2.071556449E-2,3.629474342E-2,-2.061653137E-2
1.951268163E1,-2.599881589E-2,4.365121201E-2,1.055717468E-3
1.952284398E1,-3.136394918E-2,4.663108289E-2,5.772590637E-3
1.953300633E1,-2.041931450E-2,4.527504742E-2,5.675315857E-3
1.954316869E1,-2.649602294E-2,5.348725244E-2,8.811950684E-4
1.955333104E1,-2.565579116E-2,4.516869411E-2,-3.858566284E-3
1.956349339E1,-1.802721620E-2,3.243284300E-2,-2.032756805E-2
1.957365575E1,-1.121684909E-3,3.420761973E-2,-1.294136047E-2
1.958381810E1,2.965778112E-2,1.217860729E-2,3.829002380E-3
1.959398045E1,3.645350039E-2,1.972004771E-3,2.978801727E-2
1.960414281E1,1.531204581E-2,3.104709089E-3,4.344558716E-2
1.961430516E1,-4.282356799E-2,2.004912496E-2,2.151775360E-2
1.962446751E1,-8.281672001E-2,3.611889482E-2,-1.898670197E-2
1.963462987E1,-9.630613029E-2,6.610354781E-2,-4.931354523E-2
1.964479222E1,-9.188741446E-2,8.646887541E-2,-3.189563751E-2
1.965495458E1,-7.530474663E-2,8.309880644E-2,1.682281494E-3
1.966514745E1,-2.718284726E-2,8.020731062E-2,-6.470584869E-2
1.967530980E1,5.339156091E-2,6.669792533E-2,-1.439819336E-1
1.968547215E1,8.419302106E-2,2.912075445E-2,-4.916667938E-2
1.969563451E1,4.970215261E-2,-5.159322172E-4,9.097003937E-2
1.970579686E1,-7.336929440E-3,-3.778670356E-2,1.058692932E-1
1.971595921E1,-5.878926814E-2,-6.128486991E-2,5.671787262E-2
1.972612157E1,-9.048555791E-2,-4.666218534E-2,-9.080410004E-2
1.973628392E1,-7.966440916E-2,9.253656492E-3,-2.216081619E-1
1.974644627E1,-7.266899943E-2,5.009897053E-2,-1.988649368E-1
1.975660863E1,-8.691348135E-2,8.994209021E-2,-3.718376160E-2
1.976677098E1,-1.120107323E-1,9.379576892E-2,1.311101913E-1
1.977693333E1,-6.531086564E-2,8.629730344E-2,2.043046951E-1
1.978709569E1,-1.970528066E-2,7.585835457E-2,1.463470459E-1
1.979728856E1,3.412483633E-2,7.288055122E-2,2.564144135E-2
1.980745091E1,5.911292136E-2,7.182376087E-2,-7.170581818E-2
1.981761327E1,5.028453469E-2,4.275774583E-2,-1.012058258E-1
1.982777562E1,2.768412232E-2,1.467245072E-2,-5.930423737E-2
1.983793797E1,-1.492640376E-2,-1.023824140E-2,-3.475093842E-2
1.984810033E1,-4.656486213E-2,-2.303864248E-2,-5.074214935E-2
1.985826268E1,-7.261905074E-2,-2.842838503E-2,-1.113348007E-1
1.986842503E1,-8.652950823E-2,-6.999406964E-3,-1.519889832E-1
1.987858739E1,-5.096894503E-2,7.958544418E-3,-1.351709366E-1
1.988874974E1,-4.266113043E-3,2.572900802E-2,-3.116703033E-2
1.989891209E1,3.224556148E-2,4.286247119E-2,8.045864105E-2
1.990910496E1,4.716292024E-2,5.126732215E-2,1.026687622E-1
1.991926732E1,3.360424936E-2,4.616814852E-2,6.313514709E-2
1.992942967E1,1.071242988E-2,4.266332835E-2,7.718086243E-3
1.993959203E1,-5.088910460E-3,4.857697710E-2,-1.837158203E-2
1.994975438E1,-4.358649254E-3,4.273653403E-2,-3.223609924E-2
1.995991673E1,-6.254732609E-3,4.922870919E-2,-4.351520538E-2
1.997007909E1,1.769793034E-2,5.834451690E-2,-5.217647552E-2
1.998024144E1,-8.713766932E-3,5.569131300E-2,4.581451416E-2
1.999040379E1,-5.362702906E-2,4.778959230E-2,1.560583115E-1
2.000056615E1,-5.707308650E-2,4.329807684E-2,7.526493073E-2
2.001072850E1,-1.494644582E-2,5.022259057E-2,-8.906078339E-2
2.002089085E1,7.405102253E-3,5.599274859E-2,-1.488599777E-1
2.003108373E1,-3.539587557E-2,4.951755702E-2,-8.954238892E-2
2.004124608E1,-8.073836565E-2,5.427373201E-2,-6.427764893E-4
2.005140843E1,-8.284614980E-2,5.933017284E-2,5.603313446E-2
2.006157078E1,-4.651291668E-2,6.173593551E-2,4.795646667E-2
2.007173314E1,-6.045654416E-3,5.427785963E-2,3.293323517E-2
2.008189549E1,1.191131771E-2,4.911537468E-2,4.180717468E-2
2.009205785E1,7.541716099E-3,4.610717297E-2,6.946849823E-2
2.010222020E1,5.125299096E-3,4.476825893E-2,7.060432434E-2
2.011238255E1,-1.623843610E-2,4.748830572E-2,4.570198059E-2
2.012254491E1,-4.460029304E-2,4.272900522E-2,2.359104156E-2
2.013270726E1,-5.834400654E-2,3.082868084E-2,-4.549026489E-4
2.014286961E1,-5.281825364E-2,4.250971973E-2,-7.584571838E-3
2.015303197E1,-4.468163848E-2,3.484113887E-2,9.099960327E-3
2.016322484E1,-3.148601949E-2,4.352245480E-2,8.904457092E-3
2.017338719E1,-2.287411690E-2,5.416375771E-2,8.740425110E-3
2.018354954E1,-2.361746132E-2,5.032204464E-2,-3.232002258E-3
2.019371190E1,-9.986758232E-3,4.666116834E-2,-1.498699188E-2
2.020387425E1,-2.485758066E-2,4.581769928E-2,-7.675170898E-3
2.021403661E1,-1.562079787E-2,4.777715728E-2,-5.214691162E-3
